151214_1046,1,globals,Period,NumPeriods,RepeatTreatment,numSubjects,groupSize,numGroups,TRUE,FALSE,Choices,prof,minChoice,fee,rate,a,b,c,choice1,choice2,choice3,choice4,choice5,InfoTime,Time,LastPeriod,groupID,groupIDs[1],groupIDs[2],groupIDs[3],groupIDs[4],groupIDs[5],groupIDs[6],groupIDs[7],groupIDs[8],groupIDs[9],groupIDs[10],groupIDs[11],groupIDs[12],groupIDs[13],groupIDs[14],groupIDs[15],groupIDs[16],groupIDs[17],groupIDs[18],subjectID,pointID,randID,id,au[1],au[2],au[3],au[4],au[5],au[6],au[7],au[8],au[9],au[10],au[11],au[12],au[13],au[14],au[15],au[16],au[17],au[18],Role[1],Role[2],Role[3],Role[4],Role[5],Role[6],Role[7],Role[8],Role[9],Role[10],Role[11],Role[12],Role[13],Role[14],Role[15],Role[16],Role[17],Role[18],i,g
151214_1046,1,globals,1,10,0,18,6,3,1,0,0,0,0,8,1,0.2,0.04,0.18,0,0,0,0,0,200,1000,10,4,1,3,2,1,1,3,3,2,3,3,1,2,2,3,2,1,2,1,19,1,1,1,1,1,1,1,1,1,1,1,1,1,1,1,1,1,1,1,1,1,1,1,1,2,3,2,3,2,4,5,4,3,4,6,5,5,6,6,19,0
151214_1046,1,subjects,Period,Subject,Group,Profit,TotalProfit,Participate,payoff[1],payoff[2],payoff[3],payoff[4],payoff[5],payoff[6],payoff[7],payoff[8],payoff[9],payoff[10],GroupID,firstGroupID,role,button,Input11,Input12,Input13,Input14,Input15,x,y,TimeContinueComprehensionPayoffsOK,TimeContinueGroupRandomizationMessageOK,r0,r1,r2,r3,r4,r5,ready,Choices,TimeOKMainStageOK,minChoice,prof,payment,choice0,choice1,choice2,choice3,choice4,choice5,TimeContinueInfornationOK,TimePlotSelectComprehensionPayoffsOK,TimePlotSelectMainStageOK,,,,,,,,,,,,,,,,,,,,,,,,,,,,,,,,,,,
151214_1046,1,subjects,1,1,1,0,0,0,0.9,0,0,0,0,0,0,0,0,0,1,1,1,0,0.42,0.5,0.62,0.82,0.74,37.72189349,-19.6969697,123,0,1,4,5,11,16,18,1,7,991,5,0.9,0.9,7,7,7,7,6,5,194,0,994,,,,,,,,,,,,,,,,,,,,,,,,,,,,,,,,,,,
151214_1046,1,subjects,1,2,1,0,0,0,0.1,0,0,0,0,0,0,0,0,0,3,3,1,1,0.42,0.5,0.62,0.82,0.74,39.49704142,-32.38636364,124,6,2,6,7,9,10,14,1,7,993,1,0.1,0.1,7,7,6,1,7,7,195,126,1000,,,,,,,,,,,,,,,,,,,,,,,,,,,,,,,,,,,
151214_1046,1,subjects,1,3,1,0,0,0,0.78,0,0,0,0,0,0,0,0,0,2,2,1,1,0.42,0.5,0.62,0.82,0.74,10.57692308,-29.73484848,97,1,3,8,12,13,15,17,1,5,960,4,0.78,0.78,5,7,7,7,4,7,190,101,964,,,,,,,,,,,,,,,,,,,,,,,,,,,,,,,,,,,
151214_1046,1,subjects,1,4,1,0,0,0,0.9,0,0,0,0,0,0,0,0,0,1,1,2,1,0.42,0.5,0.62,0.82,0.74,34.83727811,-30.11363636,139,5,4,1,5,11,16,18,1,7,999,5,0.9,0.9,7,7,7,7,6,5,195,142,999,,,,,,,,,,,,,,,,,,,,,,,,,,,,,,,,,,,
151214_1046,1,subjects,1,5,1,0,0,0,0.9,0,0,0,0,0,0,0,0,0,1,1,3,1,0.42,0.5,0.62,0.82,0.74,35.20710059,-28.78787879,131,6,5,1,4,11,16,18,1,7,999,5,0.9,0.9,7,7,7,7,6,5,196,133,999,,,,,,,,,,,,,,,,,,,,,,,,,,,,,,,,,,,
151214_1046,1,subjects,1,6,1,0,0,0,0.1,0,0,0,0,0,0,0,0,0,3,3,2,1,0.42,0.5,0.62,0.82,0.74,36.46449704,-32.1969697,114,7,6,2,7,9,10,14,1,7,997,1,0.1,0.1,7,7,6,1,7,7,188,119,1000,,,,,,,,,,,,,,,,,,,,,,,,,,,,,,,,,,,
151214_1046,1,subjects,1,7,1,0,0,0,0.14,0,0,0,0,0,0,0,0,0,3,3,3,1,0.42,0.5,0.62,0.82,0.74,29.51183432,-30.87121212,128,7,7,2,6,9,10,14,1,6,997,1,0.14,0.14,6,7,7,1,7,7,192,133,1000,,,,,,,,,,,,,,,,,,,,,,,,,,,,,,,,,,,
151214_1046,1,subjects,1,8,1,0,0,0,0.7,0,0,0,0,0,0,0,0,0,2,2,2,1,0.42,0.5,0.62,0.82,0.74,34.83727811,-24.0530303,133,5,8,3,12,13,15,17,1,7,993,4,0.7,0.7,7,5,7,7,4,7,194,136,995,,,,,,,,,,,,,,,,,,,,,,,,,,,,,,,,,,,
151214_1046,1,subjects,1,9,1,0,0,0,0.34,0,0,0,0,0,0,0,0,0,3,3,4,0,0.42,0.5,0.62,0.82,0.74,-36.02071006,-19.88636364,124,5,9,2,6,7,10,14,1,1,915,1,0.34,0.34,1,7,7,6,7,7,196,0,920,,,,,,,,,,,,,,,,,,,,,,,,,,,,,,,,,,,
151214_1046,1,subjects,1,10,1,0,0,0,0.1,0,0,0,0,0,0,0,0,0,3,3,5,1,0.42,0.5,0.62,0.82,0.74,39.12721893,-19.6969697,124,8,10,2,6,7,9,14,1,7,989,1,0.1,0.1,7,7,7,6,1,7,186,126,996,,,,,,,,,,,,,,,,,,,,,,,,,,,,,,,,,,,
151214_1046,1,subjects,1,11,1,0,0,0,0.9,0,0,0,0,0,0,0,0,0,1,1,4,0,0.42,0.5,0.62,0.82,0.74,37.5739645,-24.0530303,147,6,11,1,4,5,16,18,1,7,998,5,0.9,0.9,7,7,7,7,6,5,196,0,1000,,,,,,,,,,,,,,,,,,,,,,,,,,,,,,,,,,,
151214_1046,1,subjects,1,12,1,0,0,0,0.7,0,0,0,0,0,0,0,0,0,2,2,3,1,0.42,0.5,0.62,0.82,0.74,39.12721893,-24.81060606,156,8,12,3,8,13,15,17,1,7,997,4,0.7,0.7,7,5,7,7,4,7,196,160,1000,,,,,,,,,,,,,,,,,,,,,,,,,,,,,,,,,,,
151214_1046,1,subjects,1,13,1,0,0,0,0.7,0,0,0,0,0,0,0,0,0,2,2,4,1,0.42,0.5,0.62,0.82,0.74,38.16568047,-32.1969697,145,3,13,3,8,12,15,17,1,7,997,4,0.7,0.7,7,5,7,7,4,7,195,148,999,,,,,,,,,,,,,,,,,,,,,,,,,,,,,,,,,,,
151214_1046,1,subjects,1,14,1,0,0,0,0.1,0,0,0,0,0,0,0,0,0,3,3,6,1,0.42,0.5,0.62,0.82,0.74,42.3816568,-32.1969697,124,0,14,2,6,7,9,10,1,7,994,1,0.1,0.1,7,7,7,6,1,7,194,127,1000,,,,,,,,,,,,,,,,,,,,,,,,,,,,,,,,,,,
151214_1046,1,subjects,1,15,1,0,0,0,0.82,0,0,0,0,0,0,0,0,0,2,2,5,1,0.42,0.5,0.62,0.82,0.74,1.99704142,-32.38636364,133,6,15,3,8,12,13,17,1,4,970,4,0.82,0.82,4,5,7,7,7,7,191,137,972,,,,,,,,,,,,,,,,,,,,,,,,,,,,,,,,,,,
151214_1046,1,subjects,1,16,1,0,0,0,0.94,0,0,0,0,0,0,0,0,0,1,1,5,1,0.42,0.5,0.62,0.82,0.74,29.43786982,-26.89393939,133,2,16,1,4,5,11,18,1,6,996,5,0.94,0.94,6,7,7,7,7,5,190,145,999,,,,,,,,,,,,,,,,,,,,,,,,,,,,,,,,,,,
151214_1046,1,subjects,1,17,1,0,0,0,0.7,0,0,0,0,0,0,0,0,0,2,2,6,1,0.42,0.5,0.62,0.82,0.74,42.5295858,-32.00757576,144,6,17,3,8,12,13,15,1,7,999,4,0.7,0.7,7,5,7,7,7,4,196,147,1000,,,,,,,,,,,,,,,,,,,,,,,,,,,,,,,,,,,
151214_1046,1,subjects,1,18,1,0,0,0,0.98,0,0,0,0,0,0,0,0,0,1,1,6,1,0.42,0.5,0.62,0.82,0.74,11.16863905,-31.62878788,153,0,18,1,4,5,11,16,1,5,993,5,0.98,0.98,5,7,7,7,7,6,194,155,993,,,,,,,,,,,,,,,,,,,,,,,,,,,,,,,,,,,
151214_1046,1,globals,Period,NumPeriods,RepeatTreatment,numSubjects,groupSize,numGroups,TRUE,FALSE,Choices,prof,minChoice,fee,rate,a,b,c,choice1,choice2,choice3,choice4,choice5,InfoTime,Time,LastPeriod,groupID,groupIDs[1],groupIDs[2],groupIDs[3],groupIDs[4],groupIDs[5],groupIDs[6],groupIDs[7],groupIDs[8],groupIDs[9],groupIDs[10],groupIDs[11],groupIDs[12],groupIDs[13],groupIDs[14],groupIDs[15],groupIDs[16],groupIDs[17],groupIDs[18],subjectID,pointID,randID,id,au[1],au[2],au[3],au[4],au[5],au[6],au[7],au[8],au[9],au[10],au[11],au[12],au[13],au[14],au[15],au[16],au[17],au[18],Role[1],Role[2],Role[3],Role[4],Role[5],Role[6],Role[7],Role[8],Role[9],Role[10],Role[11],Role[12],Role[13],Role[14],Role[15],Role[16],Role[17],Role[18],i,g
151214_1046,1,globals,2,10,0,18,6,3,1,0,0,0,0,8,1,0.2,0.04,0.18,0,0,0,0,0,200,1000,10,4,2,1,1,1,3,1,3,3,2,1,2,1,2,3,3,2,3,2,19,2,1,1,1,1,1,1,1,1,1,1,1,1,1,1,1,1,1,1,1,1,1,1,2,3,1,4,2,3,2,5,3,6,4,4,5,5,6,6,19,1
151214_1046,1,subjects,Period,Subject,Group,Profit,TotalProfit,Participate,payoff[1],payoff[2],payoff[3],payoff[4],payoff[5],payoff[6],payoff[7],payoff[8],payoff[9],payoff[10],GroupID,firstGroupID,role,button,Input11,Input12,Input13,Input14,Input15,x,y,TimeContinueComprehensionPayoffsOK,TimeContinueGroupRandomizationMessageOK,r0,r1,r2,r3,r4,r5,ready,Choices,TimeOKMainStageOK,minChoice,prof,payment,choice0,choice1,choice2,choice3,choice4,choice5,TimeContinueInfornationOK,TimePlotSelectComprehensionPayoffsOK,TimePlotSelectMainStageOK,,,,,,,,,,,,,,,,,,,,,,,,,,,,,,,,,,,
151214_1046,1,subjects,2,1,1,0,0,0,0,1.88,0,0,0,0,0,0,0,0,1,1,1,0,-,-,-,-,-,14.57100592,-19.88636364,-,-,1,4,5,11,16,18,1,5,977,5,0.98,1.88,5,5,6,7,7,7,194,-,978,,,,,,,,,,,,,,,,,,,,,,,,,,,,,,,,,,,
151214_1046,1,subjects,2,2,1,0,0,0,0,0.44,0,0,0,0,0,0,0,0,3,3,1,0,-,-,-,-,-,29.80769231,-26.89393939,-,-,2,6,7,9,10,14,1,6,994,2,0.34,0.44,6,5,5,2,5,7,189,-,998,,,,,,,,,,,,,,,,,,,,,,,,,,,,,,,,,,,
151214_1046,1,subjects,2,3,1,0,0,0,0,1.72,0,0,0,0,0,0,0,0,2,2,1,0,-,-,-,-,-,29.36390533,-31.81818182,-,-,3,8,12,13,15,17,1,6,982,5,0.94,1.72,6,7,7,5,5,7,194,-,984,,,,,,,,,,,,,,,,,,,,,,,,,,,,,,,,,,,
151214_1046,1,subjects,2,4,1,0,0,0,0,1.88,0,0,0,0,0,0,0,0,1,1,2,0,-,-,-,-,-,16.19822485,-25.18939394,-,-,4,1,5,11,16,18,1,5,998,5,0.98,1.88,5,5,6,7,7,7,199,-,99999,,,,,,,,,,,,,,,,,,,,,,,,,,,,,,,,,,,
151214_1046,1,subjects,2,5,1,0,0,0,0,1.84,0,0,0,0,0,0,0,0,1,1,3,0,-,-,-,-,-,29.65976331,-32.38636364,-,-,5,1,4,11,16,18,1,6,996,5,0.94,1.84,6,5,5,7,7,7,193,-,998,,,,,,,,,,,,,,,,,,,,,,,,,,,,,,,,,,,
151214_1046,1,subjects,2,6,1,0,0,0,0,0.48,0,0,0,0,0,0,0,0,3,3,2,0,-,-,-,-,-,16.93786982,-29.16666667,-,-,6,2,7,9,10,14,1,5,982,2,0.38,0.48,5,6,5,2,5,7,190,-,984,,,,,,,,,,,,,,,,,,,,,,,,,,,,,,,,,,,
151214_1046,1,subjects,2,7,1,0,0,0,0,0.52,0,0,0,0,0,0,0,0,3,3,3,0,-,-,-,-,-,16.49408284,-32.00757576,-,-,7,2,6,9,10,14,1,5,987,2,0.38,0.52,5,6,5,2,5,7,190,-,991,,,,,,,,,,,,,,,,,,,,,,,,,,,,,,,,,,,
151214_1046,1,subjects,2,8,1,0,0,0,0,1.6,0,0,0,0,0,0,0,0,2,2,2,0,-,-,-,-,-,34.83727811,-32.00757576,-,-,8,3,12,13,15,17,1,7,997,5,0.9,1.6,7,6,7,5,5,7,190,-,99999,,,,,,,,,,,,,,,,,,,,,,,,,,,,,,,,,,,
151214_1046,1,subjects,2,9,1,0,0,0,0,0.84,0,0,0,0,0,0,0,0,3,3,4,0,-,-,-,-,-,-28.99408284,-22.15909091,-,-,9,2,6,7,10,14,1,2,957,2,0.5,0.84,2,6,5,5,5,7,194,-,961,,,,,,,,,,,,,,,,,,,,,,,,,,,,,,,,,,,
151214_1046,1,subjects,2,10,1,0,0,0,0,0.48,0,0,0,0,0,0,0,0,3,3,5,0,-,-,-,-,-,17.08579882,-25.18939394,-,-,10,2,6,7,9,14,1,5,975,2,0.38,0.48,5,6,5,5,2,7,187,-,983,,,,,,,,,,,,,,,,,,,,,,,,,,,,,,,,,,,
151214_1046,1,subjects,2,11,1,0,0,0,0,1.8,0,0,0,0,0,0,0,0,1,1,4,0,-,-,-,-,-,37.5,-32.38636364,-,-,11,1,4,5,16,18,1,7,995,5,0.9,1.8,7,5,5,6,7,7,198,-,998,,,,,,,,,,,,,,,,,,,,,,,,,,,,,,,,,,,
151214_1046,1,subjects,2,12,1,0,0,0,0,1.6,0,0,0,0,0,0,0,0,2,2,3,0,-,-,-,-,-,36.31656805,-19.88636364,-,-,12,3,8,13,15,17,1,7,99999,5,0.9,1.6,7,6,7,5,5,7,198,-,99999,,,,,,,,,,,,,,,,,,,,,,,,,,,,,,,,,,,
151214_1046,1,subjects,2,13,1,0,0,0,0,1.68,0,0,0,0,0,0,0,0,2,2,4,0,-,-,-,-,-,9.615384615,-26.89393939,-,-,13,3,8,12,15,17,1,5,951,5,0.98,1.68,5,6,7,7,5,7,196,-,952,,,,,,,,,,,,,,,,,,,,,,,,,,,,,,,,,,,
151214_1046,1,subjects,2,14,1,0,0,0,0,0.4,0,0,0,0,0,0,0,0,3,3,6,0,-,-,-,-,-,43.04733728,-29.73484848,-,-,14,2,6,7,9,10,1,7,986,2,0.3,0.4,7,6,5,5,2,5,194,-,99999,,,,,,,,,,,,,,,,,,,,,,,,,,,,,,,,,,,
151214_1046,1,subjects,2,15,1,0,0,0,0,1.8,0,0,0,0,0,0,0,0,2,2,5,0,-,-,-,-,-,14.79289941,-31.81818182,-,-,15,3,8,12,13,17,1,5,975,5,0.98,1.8,5,6,7,7,5,7,197,-,981,,,,,,,,,,,,,,,,,,,,,,,,,,,,,,,,,,,
151214_1046,1,subjects,2,16,1,0,0,0,0,1.84,0,0,0,0,0,0,0,0,1,1,5,0,-,-,-,-,-,42.01183432,-20.07575758,-,-,16,1,4,5,11,18,1,7,997,5,0.9,1.84,7,5,5,6,7,7,195,-,99999,,,,,,,,,,,,,,,,,,,,,,,,,,,,,,,,,,,
151214_1046,1,subjects,2,17,1,0,0,0,0,1.6,0,0,0,0,0,0,0,0,2,2,6,0,-,-,-,-,-,38.90532544,-32.38636364,-,-,17,3,8,12,13,15,1,7,993,5,0.9,1.6,7,6,7,7,5,5,197,-,99999,,,,,,,,,,,,,,,,,,,,,,,,,,,,,,,,,,,
151214_1046,1,subjects,2,18,1,0,0,0,0,1.88,0,0,0,0,0,0,0,0,1,1,6,0,-,-,-,-,-,34.83727811,-25.37878788,-,-,18,1,4,5,11,16,1,7,990,5,0.9,1.88,7,5,5,6,7,7,192,-,992,,,,,,,,,,,,,,,,,,,,,,,,,,,,,,,,,,,
151214_1046,1,globals,Period,NumPeriods,RepeatTreatment,numSubjects,groupSize,numGroups,TRUE,FALSE,Choices,prof,minChoice,fee,rate,a,b,c,choice1,choice2,choice3,choice4,choice5,InfoTime,Time,LastPeriod,groupID,groupIDs[1],groupIDs[2],groupIDs[3],groupIDs[4],groupIDs[5],groupIDs[6],groupIDs[7],groupIDs[8],groupIDs[9],groupIDs[10],groupIDs[11],groupIDs[12],groupIDs[13],groupIDs[14],groupIDs[15],groupIDs[16],groupIDs[17],groupIDs[18],subjectID,pointID,randID,id,au[1],au[2],au[3],au[4],au[5],au[6],au[7],au[8],au[9],au[10],au[11],au[12],au[13],au[14],au[15],au[16],au[17],au[18],Role[1],Role[2],Role[3],Role[4],Role[5],Role[6],Role[7],Role[8],Role[9],Role[10],Role[11],Role[12],Role[13],Role[14],Role[15],Role[16],Role[17],Role[18],i,g
151214_1046,1,globals,3,10,0,18,6,3,1,0,0,0,0,8,1,0.2,0.04,0.18,0,0,0,0,0,200,1000,10,4,3,3,2,2,1,3,2,1,3,2,1,1,2,3,1,1,2,3,19,3,2,1,1,1,1,1,1,1,1,1,1,1,1,1,1,1,1,1,1,1,1,2,1,2,1,3,3,2,4,4,3,4,5,5,5,6,6,6,19,2
151214_1046,1,subjects,Period,Subject,Group,Profit,TotalProfit,Participate,payoff[1],payoff[2],payoff[3],payoff[4],payoff[5],payoff[6],payoff[7],payoff[8],payoff[9],payoff[10],GroupID,firstGroupID,role,button,Input11,Input12,Input13,Input14,Input15,x,y,TimeContinueComprehensionPayoffsOK,TimeContinueGroupRandomizationMessageOK,r0,r1,r2,r3,r4,r5,ready,Choices,TimeOKMainStageOK,minChoice,prof,payment,choice0,choice1,choice2,choice3,choice4,choice5,TimeContinueInfornationOK,TimePlotSelectComprehensionPayoffsOK,TimePlotSelectMainStageOK,,,,,,,,,,,,,,,,,,,,,,,,,,,,,,,,,,,
151214_1046,1,subjects,3,1,1,0,0,0,0,0,2.86,0,0,0,0,0,0,0,1,1,1,0,-,-,-,-,-,16.86390533,-20.26515152,-,-,1,4,5,11,16,18,1,5,990,5,0.98,2.86,5,7,7,7,6,7,197,-,996,,,,,,,,,,,,,,,,,,,,,,,,,,,,,,,,,,,
151214_1046,1,subjects,3,2,1,0,0,0,0,0,0.78,0,0,0,0,0,0,0,3,3,1,0,-,-,-,-,-,29.51183432,-26.89393939,-,-,2,6,7,9,10,14,1,6,997,2,0.34,0.78,6,4,6,3,2,7,196,-,99999,,,,,,,,,,,,,,,,,,,,,,,,,,,,,,,,,,,
151214_1046,1,subjects,3,3,1,0,0,0,0,0,2.86,0,0,0,0,0,0,0,2,2,1,0,-,-,-,-,-,21.89349112,-26.70454545,-,-,3,8,12,13,15,17,1,6,99999,6,1.14,2.86,6,7,7,6,6,6,197,-,99999,,,,,,,,,,,,,,,,,,,,,,,,,,,,,,,,,,,
151214_1046,1,subjects,3,4,1,0,0,0,0,0,2.78,0,0,0,0,0,0,0,1,1,2,0,-,-,-,-,-,38.23964497,-32.1969697,-,-,4,1,5,11,16,18,1,7,993,5,0.9,2.78,7,5,7,7,6,7,198,-,99999,,,,,,,,,,,,,,,,,,,,,,,,,,,,,,,,,,,
151214_1046,1,subjects,3,5,1,0,0,0,0,0,2.74,0,0,0,0,0,0,0,1,1,3,0,-,-,-,-,-,40.23668639,-20.26515152,-,-,5,1,4,11,16,18,1,7,997,5,0.9,2.74,7,5,7,7,6,7,199,-,99999,,,,,,,,,,,,,,,,,,,,,,,,,,,,,,,,,,,
151214_1046,1,subjects,3,6,1,0,0,0,0,0,0.9,0,0,0,0,0,0,0,3,3,2,0,-,-,-,-,-,1.627218935,-32.38636364,-,-,6,2,7,9,10,14,1,4,990,2,0.42,0.9,4,6,6,3,2,7,180,-,995,,,,,,,,,,,,,,,,,,,,,,,,,,,,,,,,,,,
151214_1046,1,subjects,3,7,1,0,0,0,0,0,0.86,0,0,0,0,0,0,0,3,3,3,0,-,-,-,-,-,29.9556213,-31.25,-,-,7,2,6,9,10,14,1,6,995,2,0.34,0.86,6,6,4,3,2,7,190,-,997,,,,,,,,,,,,,,,,,,,,,,,,,,,,,,,,,,,
151214_1046,1,subjects,3,8,1,0,0,0,0,0,2.7,0,0,0,0,0,0,0,2,2,2,0,-,-,-,-,-,38.60946746,-24.81060606,-,-,8,3,12,13,15,17,1,7,982,6,1.1,2.7,7,6,7,6,6,6,173,-,99999,,,,,,,,,,,,,,,,,,,,,,,,,,,,,,,,,,,
151214_1046,1,subjects,3,9,1,0,0,0,0,0,1.3,0,0,0,0,0,0,0,3,3,4,0,-,-,-,-,-,-14.05325444,-21.96969697,-,-,9,2,6,7,10,14,1,3,995,2,0.46,1.3,3,6,4,6,2,7,194,-,99999,,,,,,,,,,,,,,,,,,,,,,,,,,,,,,,,,,,
151214_1046,1,subjects,3,10,1,0,0,0,0,0,0.98,0,0,0,0,0,0,0,3,3,5,0,-,-,-,-,-,-27.5887574,-19.88636364,-,-,10,2,6,7,9,14,1,2,956,2,0.5,0.98,2,6,4,6,3,7,196,-,961,,,,,,,,,,,,,,,,,,,,,,,,,,,,,,,,,,,
151214_1046,1,subjects,3,11,1,0,0,0,0,0,2.7,0,0,0,0,0,0,0,1,1,4,0,-,-,-,-,-,36.76035503,-26.51515152,-,-,11,1,4,5,16,18,1,7,99999,5,0.9,2.7,7,5,7,7,6,7,199,-,99999,,,,,,,,,,,,,,,,,,,,,,,,,,,,,,,,,,,
151214_1046,1,subjects,3,12,1,0,0,0,0,0,2.7,0,0,0,0,0,0,0,2,2,3,0,-,-,-,-,-,40.31065089,-32.38636364,-,-,12,3,8,13,15,17,1,7,99999,6,1.1,2.7,7,6,7,6,6,6,199,-,99999,,,,,,,,,,,,,,,,,,,,,,,,,,,,,,,,,,,
151214_1046,1,subjects,3,13,1,0,0,0,0,0,2.82,0,0,0,0,0,0,0,2,2,4,0,-,-,-,-,-,30.0295858,-32.00757576,-,-,13,3,8,12,15,17,1,6,997,6,1.14,2.82,6,6,7,7,6,6,195,-,99999,,,,,,,,,,,,,,,,,,,,,,,,,,,,,,,,,,,
151214_1046,1,subjects,3,14,1,0,0,0,0,0,0.7,0,0,0,0,0,0,0,3,3,6,0,-,-,-,-,-,35.20710059,-26.51515152,-,-,14,2,6,7,9,10,1,7,99999,2,0.3,0.7,7,6,4,6,3,2,195,-,99999,,,,,,,,,,,,,,,,,,,,,,,,,,,,,,,,,,,
151214_1046,1,subjects,3,15,1,0,0,0,0,0,2.94,0,0,0,0,0,0,0,2,2,5,0,-,-,-,-,-,26.25739645,-32.1969697,-,-,15,3,8,12,13,17,1,6,967,6,1.14,2.94,6,6,7,7,6,6,193,-,968,,,,,,,,,,,,,,,,,,,,,,,,,,,,,,,,,,,
151214_1046,1,subjects,3,16,1,0,0,0,0,0,2.78,0,0,0,0,0,0,0,1,1,5,0,-,-,-,-,-,30.1035503,-28.03030303,-,-,16,1,4,5,11,18,1,6,981,5,0.94,2.78,6,5,7,7,7,7,196,-,990,,,,,,,,,,,,,,,,,,,,,,,,,,,,,,,,,,,
151214_1046,1,subjects,3,17,1,0,0,0,0,0,2.74,0,0,0,0,0,0,0,2,2,6,0,-,-,-,-,-,29.8816568,-24.62121212,-,-,17,3,8,12,13,15,1,6,990,6,1.14,2.74,6,6,7,7,6,6,196,-,994,,,,,,,,,,,,,,,,,,,,,,,,,,,,,,,,,,,
151214_1046,1,subjects,3,18,1,0,0,0,0,0,2.78,0,0,0,0,0,0,0,1,1,6,0,-,-,-,-,-,38.60946746,-20.26515152,-,-,18,1,4,5,11,16,1,7,99999,5,0.9,2.78,7,5,7,7,7,6,194,-,99999,,,,,,,,,,,,,,,,,,,,,,,,,,,,,,,,,,,
151214_1046,1,globals,Period,NumPeriods,RepeatTreatment,numSubjects,groupSize,numGroups,TRUE,FALSE,Choices,prof,minChoice,fee,rate,a,b,c,choice1,choice2,choice3,choice4,choice5,InfoTime,Time,LastPeriod,groupID,groupIDs[1],groupIDs[2],groupIDs[3],groupIDs[4],groupIDs[5],groupIDs[6],groupIDs[7],groupIDs[8],groupIDs[9],groupIDs[10],groupIDs[11],groupIDs[12],groupIDs[13],groupIDs[14],groupIDs[15],groupIDs[16],groupIDs[17],groupIDs[18],subjectID,pointID,randID,id,au[1],au[2],au[3],au[4],au[5],au[6],au[7],au[8],au[9],au[10],au[11],au[12],au[13],au[14],au[15],au[16],au[17],au[18],Role[1],Role[2],Role[3],Role[4],Role[5],Role[6],Role[7],Role[8],Role[9],Role[10],Role[11],Role[12],Role[13],Role[14],Role[15],Role[16],Role[17],Role[18],i,g
151214_1046,1,globals,4,10,0,18,6,3,1,0,0,0,0,8,1,0.2,0.04,0.18,0,0,0,0,0,200,1000,10,4,1,3,1,3,1,3,2,1,3,3,2,2,2,1,1,2,2,3,19,3,2,1,1,1,1,1,1,1,1,1,1,1,1,1,1,1,1,1,1,1,1,1,2,2,3,3,1,4,4,5,2,3,4,5,6,5,6,6,19,2
151214_1046,1,subjects,Period,Subject,Group,Profit,TotalProfit,Participate,payoff[1],payoff[2],payoff[3],payoff[4],payoff[5],payoff[6],payoff[7],payoff[8],payoff[9],payoff[10],GroupID,firstGroupID,role,button,Input11,Input12,Input13,Input14,Input15,x,y,TimeContinueComprehensionPayoffsOK,TimeContinueGroupRandomizationMessageOK,r0,r1,r2,r3,r4,r5,ready,Choices,TimeOKMainStageOK,minChoice,prof,payment,choice0,choice1,choice2,choice3,choice4,choice5,TimeContinueInfornationOK,TimePlotSelectComprehensionPayoffsOK,TimePlotSelectMainStageOK,,,,,,,,,,,,,,,,,,,,,,,,,,,,,,,,,,,
151214_1046,1,subjects,4,1,1,0,0,0,0,0,0,3.84,0,0,0,0,0,0,1,1,1,0,-,-,-,-,-,12.86982249,-20.07575758,-,-,1,4,5,11,16,18,1,5,998,5,0.98,3.84,5,5,7,7,6,7,198,-,1000,,,,,,,,,,,,,,,,,,,,,,,,,,,,,,,,,,,
151214_1046,1,subjects,4,2,1,0,0,0,0,0,0,0.88,0,0,0,0,0,0,3,3,1,0,-,-,-,-,-,43.12130178,-29.73484848,-,-,2,6,7,9,10,14,1,7,994,1,0.1,0.88,7,3,1,2,7,7,198,-,997,,,,,,,,,,,,,,,,,,,,,,,,,,,,,,,,,,,
151214_1046,1,subjects,4,3,1,0,0,0,0,0,0,3.84,0,0,0,0,0,0,2,2,1,0,-,-,-,-,-,17.01183432,-25.75757576,-,-,3,8,12,13,15,17,1,5,987,5,0.98,3.84,5,7,7,7,6,7,193,-,992,,,,,,,,,,,,,,,,,,,,,,,,,,,,,,,,,,,
151214_1046,1,subjects,4,4,1,0,0,0,0,0,0,3.76,0,0,0,0,0,0,1,1,2,0,-,-,-,-,-,11.46449704,-23.29545455,-,-,4,1,5,11,16,18,1,5,998,5,0.98,3.76,5,5,7,7,6,7,198,-,999,,,,,,,,,,,,,,,,,,,,,,,,,,,,,,,,,,,
151214_1046,1,subjects,4,5,1,0,0,0,0,0,0,3.64,0,0,0,0,0,0,1,1,3,0,-,-,-,-,-,38.31360947,-32.38636364,-,-,5,1,4,11,16,18,1,7,999,5,0.9,3.64,7,5,5,7,6,7,199,-,99999,,,,,,,,,,,,,,,,,,,,,,,,,,,,,,,,,,,
151214_1046,1,subjects,4,6,1,0,0,0,0,0,0,1.16,0,0,0,0,0,0,3,3,2,0,-,-,-,-,-,-9.097633136,-25.9469697,-,-,6,2,7,9,10,14,1,3,997,1,0.26,1.16,3,7,1,2,7,7,189,-,999,,,,,,,,,,,,,,,,,,,,,,,,,,,,,,,,,,,
151214_1046,1,subjects,4,7,1,0,0,0,0,0,0,1.2,0,0,0,0,0,0,3,3,3,0,-,-,-,-,-,-34.9852071,-21.78030303,-,-,7,2,6,9,10,14,1,1,999,1,0.34,1.2,1,7,3,2,7,7,192,-,99999,,,,,,,,,,,,,,,,,,,,,,,,,,,,,,,,,,,
151214_1046,1,subjects,4,8,1,0,0,0,0,0,0,3.6,0,0,0,0,0,0,2,2,2,0,-,-,-,-,-,41.34615385,-32.1969697,-,-,8,3,12,13,15,17,1,7,997,5,0.9,3.6,7,5,7,7,6,7,190,-,999,,,,,,,,,,,,,,,,,,,,,,,,,,,,,,,,,,,
151214_1046,1,subjects,4,9,1,0,0,0,0,0,0,1.6,0,0,0,0,0,0,3,3,4,0,-,-,-,-,-,-29.06804734,-20.26515152,-,-,9,2,6,7,10,14,1,2,990,1,0.3,1.6,2,7,3,1,7,7,193,-,992,,,,,,,,,,,,,,,,,,,,,,,,,,,,,,,,,,,
151214_1046,1,subjects,4,10,1,0,0,0,0,0,0,1.08,0,0,0,0,0,0,3,3,5,0,-,-,-,-,-,38.68343195,-19.6969697,-,-,10,2,6,7,9,14,1,7,991,1,0.1,1.08,7,7,3,1,2,7,196,-,994,,,,,,,,,,,,,,,,,,,,,,,,,,,,,,,,,,,
151214_1046,1,subjects,4,11,1,0,0,0,0,0,0,3.6,0,0,0,0,0,0,1,1,4,0,-,-,-,-,-,34.83727811,-21.78030303,-,-,11,1,4,5,16,18,1,7,999,5,0.9,3.6,7,5,5,7,6,7,198,-,99999,,,,,,,,,,,,,,,,,,,,,,,,,,,,,,,,,,,
151214_1046,1,subjects,4,12,1,0,0,0,0,0,0,3.6,0,0,0,0,0,0,2,2,3,0,-,-,-,-,-,40.16272189,-20.83333333,-,-,12,3,8,13,15,17,1,7,999,5,0.9,3.6,7,5,7,7,6,7,199,-,99999,,,,,,,,,,,,,,,,,,,,,,,,,,,,,,,,,,,
151214_1046,1,subjects,4,13,1,0,0,0,0,0,0,3.72,0,0,0,0,0,0,2,2,4,0,-,-,-,-,-,36.39053254,-32.1969697,-,-,13,3,8,12,15,17,1,7,999,5,0.9,3.72,7,5,7,7,6,7,189,-,99999,,,,,,,,,,,,,,,,,,,,,,,,,,,,,,,,,,,
151214_1046,1,subjects,4,14,1,0,0,0,0,0,0,0.8,0,0,0,0,0,0,3,3,6,0,-,-,-,-,-,43.04733728,-25.56818182,-,-,14,2,6,7,9,10,1,7,993,1,0.1,0.8,7,7,3,1,2,7,193,-,994,,,,,,,,,,,,,,,,,,,,,,,,,,,,,,,,,,,
151214_1046,1,subjects,4,15,1,0,0,0,0,0,0,3.88,0,0,0,0,0,0,2,2,5,0,-,-,-,-,-,29.65976331,-28.97727273,-,-,15,3,8,12,13,17,1,6,973,5,0.94,3.88,6,5,7,7,7,7,195,-,974,,,,,,,,,,,,,,,,,,,,,,,,,,,,,,,,,,,
151214_1046,1,subjects,4,16,1,0,0,0,0,0,0,3.72,0,0,0,0,0,0,1,1,5,0,-,-,-,-,-,22.26331361,-20.83333333,-,-,16,1,4,5,11,18,1,6,999,5,0.94,3.72,6,5,5,7,7,7,198,-,99999,,,,,,,,,,,,,,,,,,,,,,,,,,,,,,,,,,,
151214_1046,1,subjects,4,17,1,0,0,0,0,0,0,3.64,0,0,0,0,0,0,2,2,6,0,-,-,-,-,-,37.05621302,-26.51515152,-,-,17,3,8,12,13,15,1,7,999,5,0.9,3.64,7,5,7,7,7,6,197,-,99999,,,,,,,,,,,,,,,,,,,,,,,,,,,,,,,,,,,
151214_1046,1,subjects,4,18,1,0,0,0,0,0,0,3.68,0,0,0,0,0,0,1,1,6,0,-,-,-,-,-,40.60650888,-19.88636364,-,-,18,1,4,5,11,16,1,7,997,5,0.9,3.68,7,5,5,7,7,6,193,-,999,,,,,,,,,,,,,,,,,,,,,,,,,,,,,,,,,,,
151214_1046,1,globals,Period,NumPeriods,RepeatTreatment,numSubjects,groupSize,numGroups,TRUE,FALSE,Choices,prof,minChoice,fee,rate,a,b,c,choice1,choice2,choice3,choice4,choice5,InfoTime,Time,LastPeriod,groupID,groupIDs[1],groupIDs[2],groupIDs[3],groupIDs[4],groupIDs[5],groupIDs[6],groupIDs[7],groupIDs[8],groupIDs[9],groupIDs[10],groupIDs[11],groupIDs[12],groupIDs[13],groupIDs[14],groupIDs[15],groupIDs[16],groupIDs[17],groupIDs[18],subjectID,pointID,randID,id,au[1],au[2],au[3],au[4],au[5],au[6],au[7],au[8],au[9],au[10],au[11],au[12],au[13],au[14],au[15],au[16],au[17],au[18],Role[1],Role[2],Role[3],Role[4],Role[5],Role[6],Role[7],Role[8],Role[9],Role[10],Role[11],Role[12],Role[13],Role[14],Role[15],Role[16],Role[17],Role[18],i,g
151214_1046,1,globals,5,10,0,18,6,3,1,0,0,0,0,8,1,0.2,0.04,0.18,0,0,0,0,0,200,1000,10,4,1,1,3,1,3,2,3,1,2,2,1,1,2,3,3,3,2,2,19,1,1,1,1,1,1,1,1,1,1,1,1,1,1,1,1,1,1,1,1,1,1,2,1,3,2,1,3,4,2,3,5,6,4,4,5,6,5,6,19,1
151214_1046,1,subjects,Period,Subject,Group,Profit,TotalProfit,Participate,payoff[1],payoff[2],payoff[3],payoff[4],payoff[5],payoff[6],payoff[7],payoff[8],payoff[9],payoff[10],GroupID,firstGroupID,role,button,Input11,Input12,Input13,Input14,Input15,x,y,TimeContinueComprehensionPayoffsOK,TimeContinueGroupRandomizationMessageOK,r0,r1,r2,r3,r4,r5,ready,Choices,TimeOKMainStageOK,minChoice,prof,payment,choice0,choice1,choice2,choice3,choice4,choice5,TimeContinueInfornationOK,TimePlotSelectComprehensionPayoffsOK,TimePlotSelectMainStageOK,,,,,,,,,,,,,,,,,,,,,,,,,,,,,,,,,,,
151214_1046,1,subjects,5,1,1,0,0,0,0,0,0,0,4.82,0,0,0,0,0,1,1,1,0,-,-,-,-,-,14.20118343,-28.40909091,-,-,1,4,5,11,16,18,1,5,997,5,0.98,4.82,5,5,5,5,5,7,198,-,99999,,,,,,,,,,,,,,,,,,,,,,,,,,,,,,,,,,,
151214_1046,1,subjects,5,2,1,0,0,0,0,0,0,0,1.22,0,0,0,0,0,3,3,1,0,-,-,-,-,-,-35.35502959,-19.6969697,-,-,2,6,7,9,10,14,1,1,997,1,0.34,1.22,1,1,7,2,4,7,198,-,99999,,,,,,,,,,,,,,,,,,,,,,,,,,,,,,,,,,,
151214_1046,1,subjects,5,3,1,0,0,0,0,0,0,0,4.58,0,0,0,0,0,2,2,1,0,-,-,-,-,-,21.96745562,-26.70454545,-,-,3,8,12,13,15,17,1,6,981,4,0.74,4.58,6,4,7,6,7,7,195,-,985,,,,,,,,,,,,,,,,,,,,,,,,,,,,,,,,,,,
151214_1046,1,subjects,5,4,1,0,0,0,0,0,0,0,4.74,0,0,0,0,0,1,1,2,0,-,-,-,-,-,13.23964497,-32.38636364,-,-,4,1,5,11,16,18,1,5,998,5,0.98,4.74,5,5,5,5,5,7,199,-,99999,,,,,,,,,,,,,,,,,,,,,,,,,,,,,,,,,,,
151214_1046,1,subjects,5,5,1,0,0,0,0,0,0,0,4.62,0,0,0,0,0,1,1,3,0,-,-,-,-,-,15.0147929,-31.06060606,-,-,5,1,4,11,16,18,1,5,1000,5,0.98,4.62,5,5,5,5,5,7,199,-,99999,,,,,,,,,,,,,,,,,,,,,,,,,,,,,,,,,,,
151214_1046,1,subjects,5,6,1,0,0,0,0,0,0,0,1.5,0,0,0,0,0,3,3,2,0,-,-,-,-,-,-43.19526627,-20.26515152,-,-,6,2,7,9,10,14,1,1,1000,1,0.34,1.5,1,1,7,2,4,7,199,-,99999,,,,,,,,,,,,,,,,,,,,,,,,,,,,,,,,,,,
151214_1046,1,subjects,5,7,1,0,0,0,0,0,0,0,1.3,0,0,0,0,0,3,3,3,0,-,-,-,-,-,35.13313609,-27.84090909,-,-,7,2,6,9,10,14,1,7,995,1,0.1,1.3,7,1,1,2,4,7,192,-,997,,,,,,,,,,,,,,,,,,,,,,,,,,,,,,,,,,,
151214_1046,1,subjects,5,8,1,0,0,0,0,0,0,0,4.42,0,0,0,0,0,2,2,2,0,-,-,-,-,-,-3.032544379,-27.27272727,-,-,8,3,12,13,15,17,1,4,961,4,0.82,4.42,4,6,7,6,7,7,192,-,962,,,,,,,,,,,,,,,,,,,,,,,,,,,,,,,,,,,
151214_1046,1,subjects,5,9,1,0,0,0,0,0,0,0,1.9,0,0,0,0,0,3,3,4,0,-,-,-,-,-,-30.0295858,-26.70454545,-,-,9,2,6,7,10,14,1,2,989,1,0.3,1.9,2,1,1,7,4,7,191,-,995,,,,,,,,,,,,,,,,,,,,,,,,,,,,,,,,,,,
151214_1046,1,subjects,5,10,1,0,0,0,0,0,0,0,1.3,0,0,0,0,0,3,3,5,0,-,-,-,-,-,-3.99408284,-29.54545455,-,-,10,2,6,7,9,14,1,4,971,1,0.22,1.3,4,1,1,7,2,7,194,-,979,,,,,,,,,,,,,,,,,,,,,,,,,,,,,,,,,,,
151214_1046,1,subjects,5,11,1,0,0,0,0,0,0,0,4.58,0,0,0,0,0,1,1,4,0,-,-,-,-,-,14.64497041,-31.43939394,-,-,11,1,4,5,16,18,1,5,99999,5,0.98,4.58,5,5,5,5,5,7,199,-,99999,,,,,,,,,,,,,,,,,,,,,,,,,,,,,,,,,,,
151214_1046,1,subjects,5,12,1,0,0,0,0,0,0,0,4.3,0,0,0,0,0,2,2,3,0,-,-,-,-,-,34.9852071,-19.88636364,-,-,12,3,8,13,15,17,1,7,998,4,0.7,4.3,7,6,4,6,7,7,200,-,99999,,,,,,,,,,,,,,,,,,,,,,,,,,,,,,,,,,,
151214_1046,1,subjects,5,13,1,0,0,0,0,0,0,0,4.46,0,0,0,0,0,2,2,4,0,-,-,-,-,-,28.32840237,-31.43939394,-,-,13,3,8,12,15,17,1,6,997,4,0.74,4.46,6,6,4,7,7,7,187,-,999,,,,,,,,,,,,,,,,,,,,,,,,,,,,,,,,,,,
151214_1046,1,subjects,5,14,1,0,0,0,0,0,0,0,0.9,0,0,0,0,0,3,3,6,0,-,-,-,-,-,35.0591716,-32.00757576,-,-,14,2,6,7,9,10,1,7,969,1,0.1,0.9,7,1,1,7,2,4,197,-,983,,,,,,,,,,,,,,,,,,,,,,,,,,,,,,,,,,,
151214_1046,1,subjects,5,15,1,0,0,0,0,0,0,0,4.58,0,0,0,0,0,2,2,5,0,-,-,-,-,-,42.6035503,-23.48484848,-,-,15,3,8,12,13,17,1,7,998,4,0.7,4.58,7,6,4,7,6,7,190,-,99999,,,,,,,,,,,,,,,,,,,,,,,,,,,,,,,,,,,
151214_1046,1,subjects,5,16,1,0,0,0,0,0,0,0,4.7,0,0,0,0,0,1,1,5,0,-,-,-,-,-,12.35207101,-20.45454545,-,-,16,1,4,5,11,18,1,5,996,5,0.98,4.7,5,5,5,5,5,7,196,-,998,,,,,,,,,,,,,,,,,,,,,,,,,,,,,,,,,,,
151214_1046,1,subjects,5,17,1,0,0,0,0,0,0,0,4.34,0,0,0,0,0,2,2,6,0,-,-,-,-,-,38.16568047,-32.38636364,-,-,17,3,8,12,13,15,1,7,984,4,0.7,4.34,7,6,4,7,6,7,198,-,988,,,,,,,,,,,,,,,,,,,,,,,,,,,,,,,,,,,
151214_1046,1,subjects,5,18,1,0,0,0,0,0,0,0,4.58,0,0,0,0,0,1,1,6,0,-,-,-,-,-,34.83727811,-24.43181818,-,-,18,1,4,5,11,16,1,7,997,5,0.9,4.58,7,5,5,5,5,5,191,-,99999,,,,,,,,,,,,,,,,,,,,,,,,,,,,,,,,,,,
151214_1046,1,globals,Period,NumPeriods,RepeatTreatment,numSubjects,groupSize,numGroups,TRUE,FALSE,Choices,prof,minChoice,fee,rate,a,b,c,choice1,choice2,choice3,choice4,choice5,InfoTime,Time,LastPeriod,groupID,groupIDs[1],groupIDs[2],groupIDs[3],groupIDs[4],groupIDs[5],groupIDs[6],groupIDs[7],groupIDs[8],groupIDs[9],groupIDs[10],groupIDs[11],groupIDs[12],groupIDs[13],groupIDs[14],groupIDs[15],groupIDs[16],groupIDs[17],groupIDs[18],subjectID,pointID,randID,id,au[1],au[2],au[3],au[4],au[5],au[6],au[7],au[8],au[9],au[10],au[11],au[12],au[13],au[14],au[15],au[16],au[17],au[18],Role[1],Role[2],Role[3],Role[4],Role[5],Role[6],Role[7],Role[8],Role[9],Role[10],Role[11],Role[12],Role[13],Role[14],Role[15],Role[16],Role[17],Role[18],i,g
151214_1046,1,globals,6,10,0,18,6,3,1,0,0,0,0,8,1,0.2,0.04,0.18,0,0,0,0,0,200,1000,10,4,1,1,1,2,3,1,1,3,2,2,2,3,3,3,1,2,3,2,19,1,2,1,1,1,1,1,1,1,1,1,1,1,1,1,1,1,1,1,1,1,1,2,3,1,1,4,5,2,2,3,4,3,4,5,6,5,6,6,19,1
151214_1046,1,subjects,Period,Subject,Group,Profit,TotalProfit,Participate,payoff[1],payoff[2],payoff[3],payoff[4],payoff[5],payoff[6],payoff[7],payoff[8],payoff[9],payoff[10],GroupID,firstGroupID,role,button,Input11,Input12,Input13,Input14,Input15,x,y,TimeContinueComprehensionPayoffsOK,TimeContinueGroupRandomizationMessageOK,r0,r1,r2,r3,r4,r5,ready,Choices,TimeOKMainStageOK,minChoice,prof,payment,choice0,choice1,choice2,choice3,choice4,choice5,TimeContinueInfornationOK,TimePlotSelectComprehensionPayoffsOK,TimePlotSelectMainStageOK,,,,,,,,,,,,,,,,,,,,,,,,,,,,,,,,,,,
151214_1046,1,subjects,6,1,1,0,0,0,0,0,0,0,0,5.8,0,0,0,0,1,1,1,0,-,-,-,-,-,12.5,-32.1969697,-,-,1,4,5,11,16,18,1,5,1000,5,0.98,5.8,5,5,6,5,5,7,199,-,99999,,,,,,,,,,,,,,,,,,,,,,,,,,,,,,,,,,,
151214_1046,1,subjects,6,2,1,0,0,0,0,0,0,0,0,1.52,0,0,0,0,3,3,1,0,-,-,-,-,-,34.83727811,-30.68181818,-,-,2,6,7,9,10,14,1,7,995,2,0.3,1.52,7,2,6,2,3,2,200,-,997,,,,,,,,,,,,,,,,,,,,,,,,,,,,,,,,,,,
151214_1046,1,subjects,6,3,1,0,0,0,0,0,0,0,0,5.28,0,0,0,0,2,2,1,0,-,-,-,-,-,38.68343195,-32.38636364,-,-,3,8,12,13,15,17,1,7,998,4,0.7,5.28,7,4,7,6,5,6,180,-,99999,,,,,,,,,,,,,,,,,,,,,,,,,,,,,,,,,,,
151214_1046,1,subjects,6,4,1,0,0,0,0,0,0,0,0,5.72,0,0,0,0,1,1,2,0,-,-,-,-,-,11.61242604,-19.6969697,-,-,4,1,5,11,16,18,1,5,998,5,0.98,5.72,5,5,6,5,5,7,197,-,99999,,,,,,,,,,,,,,,,,,,,,,,,,,,,,,,,,,,
151214_1046,1,subjects,6,5,1,0,0,0,0,0,0,0,0,5.56,0,0,0,0,1,1,3,0,-,-,-,-,-,22.18934911,-19.6969697,-,-,5,1,4,11,16,18,1,6,99999,5,0.94,5.56,6,5,5,5,5,7,200,-,99999,,,,,,,,,,,,,,,,,,,,,,,,,,,,,,,,,,,
151214_1046,1,subjects,6,6,1,0,0,0,0,0,0,0,0,2,0,0,0,0,3,3,2,0,-,-,-,-,-,-26.25739645,-23.10606061,-,-,6,2,7,9,10,14,1,2,989,2,0.5,2,2,7,6,2,3,2,200,-,996,,,,,,,,,,,,,,,,,,,,,,,,,,,,,,,,,,,
151214_1046,1,subjects,6,7,1,0,0,0,0,0,0,0,0,1.64,0,0,0,0,3,3,3,0,-,-,-,-,-,29.51183432,-31.43939394,-,-,7,2,6,9,10,14,1,6,996,2,0.34,1.64,6,7,2,2,3,2,186,-,99999,,,,,,,,,,,,,,,,,,,,,,,,,,,,,,,,,,,
151214_1046,1,subjects,6,8,1,0,0,0,0,0,0,0,0,5.24,0,0,0,0,2,2,2,0,-,-,-,-,-,1.849112426,-19.6969697,-,-,8,3,12,13,15,17,1,4,988,4,0.82,5.24,4,7,7,6,5,6,193,-,989,,,,,,,,,,,,,,,,,,,,,,,,,,,,,,,,,,,
151214_1046,1,subjects,6,9,1,0,0,0,0,0,0,0,0,2.4,0,0,0,0,3,3,4,0,-,-,-,-,-,-24.63017751,-25.56818182,-,-,9,2,6,7,10,14,1,2,997,2,0.5,2.4,2,7,2,6,3,2,184,-,99999,,,,,,,,,,,,,,,,,,,,,,,,,,,,,,,,,,,
151214_1046,1,subjects,6,10,1,0,0,0,0,0,0,0,0,1.76,0,0,0,0,3,3,5,0,-,-,-,-,-,-17.15976331,-30.3030303,-,-,10,2,6,7,9,14,1,3,984,2,0.46,1.76,3,7,2,6,2,2,191,-,990,,,,,,,,,,,,,,,,,,,,,,,,,,,,,,,,,,,
151214_1046,1,subjects,6,11,1,0,0,0,0,0,0,0,0,5.56,0,0,0,0,1,1,4,0,-,-,-,-,-,14.57100592,-32.00757576,-,-,11,1,4,5,16,18,1,5,99999,5,0.98,5.56,5,5,5,6,5,7,198,-,99999,,,,,,,,,,,,,,,,,,,,,,,,,,,,,,,,,,,
151214_1046,1,subjects,6,12,1,0,0,0,0,0,0,0,0,5,0,0,0,0,2,2,3,0,-,-,-,-,-,43.12130178,-20.45454545,-,-,12,3,8,13,15,17,1,7,1000,4,0.7,5,7,7,4,6,5,6,200,-,99999,,,,,,,,,,,,,,,,,,,,,,,,,,,,,,,,,,,
151214_1046,1,subjects,6,13,1,0,0,0,0,0,0,0,0,5.2,0,0,0,0,2,2,4,0,-,-,-,-,-,21.81952663,-26.51515152,-,-,13,3,8,12,15,17,1,6,985,4,0.74,5.2,6,7,4,7,5,6,184,-,988,,,,,,,,,,,,,,,,,,,,,,,,,,,,,,,,,,,
151214_1046,1,subjects,6,14,1,0,0,0,0,0,0,0,0,1.4,0,0,0,0,3,3,6,0,-,-,-,-,-,-30.1035503,-28.59848485,-,-,14,2,6,7,9,10,1,2,958,2,0.5,1.4,2,7,2,6,2,3,200,-,961,,,,,,,,,,,,,,,,,,,,,,,,,,,,,,,,,,,
151214_1046,1,subjects,6,15,1,0,0,0,0,0,0,0,0,5.36,0,0,0,0,2,2,5,0,-,-,-,-,-,15.16272189,-32.00757576,-,-,15,3,8,12,13,17,1,5,985,4,0.78,5.36,5,7,4,7,6,6,196,-,987,,,,,,,,,,,,,,,,,,,,,,,,,,,,,,,,,,,
151214_1046,1,subjects,6,16,1,0,0,0,0,0,0,0,0,5.68,0,0,0,0,1,1,5,0,-,-,-,-,-,8.801775148,-29.92424242,-,-,16,1,4,5,11,18,1,5,994,5,0.98,5.68,5,5,5,6,5,7,193,-,99999,,,,,,,,,,,,,,,,,,,,,,,,,,,,,,,,,,,
151214_1046,1,subjects,6,17,1,0,0,0,0,0,0,0,0,5.08,0,0,0,0,2,2,6,0,-,-,-,-,-,22.4852071,-29.16666667,-,-,17,3,8,12,13,15,1,6,997,4,0.74,5.08,6,7,4,7,6,5,195,-,99999,,,,,,,,,,,,,,,,,,,,,,,,,,,,,,,,,,,
151214_1046,1,subjects,6,18,1,0,0,0,0,0,0,0,0,5.48,0,0,0,0,1,1,6,0,-,-,-,-,-,42.4556213,-24.0530303,-,-,18,1,4,5,11,16,1,7,99999,5,0.9,5.48,7,5,5,6,5,5,197,-,99999,,,,,,,,,,,,,,,,,,,,,,,,,,,,,,,,,,,
151214_1046,1,globals,Period,NumPeriods,RepeatTreatment,numSubjects,groupSize,numGroups,TRUE,FALSE,Choices,prof,minChoice,fee,rate,a,b,c,choice1,choice2,choice3,choice4,choice5,InfoTime,Time,LastPeriod,groupID,groupIDs[1],groupIDs[2],groupIDs[3],groupIDs[4],groupIDs[5],groupIDs[6],groupIDs[7],groupIDs[8],groupIDs[9],groupIDs[10],groupIDs[11],groupIDs[12],groupIDs[13],groupIDs[14],groupIDs[15],groupIDs[16],groupIDs[17],groupIDs[18],subjectID,pointID,randID,id,au[1],au[2],au[3],au[4],au[5],au[6],au[7],au[8],au[9],au[10],au[11],au[12],au[13],au[14],au[15],au[16],au[17],au[18],Role[1],Role[2],Role[3],Role[4],Role[5],Role[6],Role[7],Role[8],Role[9],Role[10],Role[11],Role[12],Role[13],Role[14],Role[15],Role[16],Role[17],Role[18],i,g
151214_1046,1,globals,7,10,0,18,6,3,1,0,0,0,0,8,1,0.2,0.04,0.18,0,0,0,0,0,200,1000,10,4,1,2,2,3,3,2,3,3,2,1,1,1,1,1,3,2,3,2,19,2,2,1,1,1,1,1,1,1,1,1,1,1,1,1,1,1,1,1,1,1,1,1,2,1,2,3,3,4,4,2,3,4,5,6,5,5,6,6,19,1
151214_1046,1,subjects,Period,Subject,Group,Profit,TotalProfit,Participate,payoff[1],payoff[2],payoff[3],payoff[4],payoff[5],payoff[6],payoff[7],payoff[8],payoff[9],payoff[10],GroupID,firstGroupID,role,button,Input11,Input12,Input13,Input14,Input15,x,y,TimeContinueComprehensionPayoffsOK,TimeContinueGroupRandomizationMessageOK,r0,r1,r2,r3,r4,r5,ready,Choices,TimeOKMainStageOK,minChoice,prof,payment,choice0,choice1,choice2,choice3,choice4,choice5,TimeContinueInfornationOK,TimePlotSelectComprehensionPayoffsOK,TimePlotSelectMainStageOK,,,,,,,,,,,,,,,,,,,,,,,,,,,,,,,,,,,
151214_1046,1,subjects,7,1,1,0,0,0,0,0,0,0,0,0,6.78,0,0,0,1,1,1,0,-,-,-,-,-,13.16568047,-26.70454545,-,-,1,4,5,11,16,18,1,5,996,5,0.98,6.78,5,5,5,5,5,7,197,-,998,,,,,,,,,,,,,,,,,,,,,,,,,,,,,,,,,,,
151214_1046,1,subjects,7,2,1,0,0,0,0,0,0,0,0,0,1.7,0,0,0,3,3,1,0,-,-,-,-,-,8.801775148,-29.92424242,-,-,2,6,7,9,10,14,1,5,995,1,0.18,1.7,5,2,3,1,3,6,199,-,997,,,,,,,,,,,,,,,,,,,,,,,,,,,,,,,,,,,
151214_1046,1,subjects,7,3,1,0,0,0,0,0,0,0,0,0,6.02,0,0,0,2,2,1,0,-,-,-,-,-,26.55325444,-28.97727273,-,-,3,8,12,13,15,17,1,6,993,4,0.74,6.02,6,7,7,5,4,5,195,-,995,,,,,,,,,,,,,,,,,,,,,,,,,,,,,,,,,,,
151214_1046,1,subjects,7,4,1,0,0,0,0,0,0,0,0,0,6.7,0,0,0,1,1,2,0,-,-,-,-,-,8.801775148,-30.68181818,-,-,4,1,5,11,16,18,1,5,998,5,0.98,6.7,5,5,5,5,5,7,197,-,99999,,,,,,,,,,,,,,,,,,,,,,,,,,,,,,,,,,,
151214_1046,1,subjects,7,5,1,0,0,0,0,0,0,0,0,0,6.54,0,0,0,1,1,3,0,-,-,-,-,-,14.34911243,-32.00757576,-,-,5,1,4,11,16,18,1,5,99999,5,0.98,6.54,5,5,5,5,5,7,199,-,99999,,,,,,,,,,,,,,,,,,,,,,,,,,,,,,,,,,,
151214_1046,1,subjects,7,6,1,0,0,0,0,0,0,0,0,0,2.3,0,0,0,3,3,2,0,-,-,-,-,-,-25.14792899,-26.32575758,-,-,6,2,7,9,10,14,1,2,997,1,0.3,2.3,2,5,3,1,3,6,196,-,99999,,,,,,,,,,,,,,,,,,,,,,,,,,,,,,,,,,,
151214_1046,1,subjects,7,7,1,0,0,0,0,0,0,0,0,0,1.9,0,0,0,3,3,3,0,-,-,-,-,-,-16.71597633,-19.88636364,-,-,7,2,6,9,10,14,1,3,981,1,0.26,1.9,3,5,2,1,3,6,197,-,989,,,,,,,,,,,,,,,,,,,,,,,,,,,,,,,,,,,
151214_1046,1,subjects,7,8,1,0,0,0,0,0,0,0,0,0,5.94,0,0,0,2,2,2,0,-,-,-,-,-,38.97928994,-32.38636364,-,-,8,3,12,13,15,17,1,7,997,4,0.7,5.94,7,6,7,5,4,5,193,-,99999,,,,,,,,,,,,,,,,,,,,,,,,,,,,,,,,,,,
151214_1046,1,subjects,7,9,1,0,0,0,0,0,0,0,0,0,2.74,0,0,0,3,3,4,0,-,-,-,-,-,-43.04733728,-25.75757576,-,-,9,2,6,7,10,14,1,1,996,1,0.34,2.74,1,5,2,3,3,6,197,-,99999,,,,,,,,,,,,,,,,,,,,,,,,,,,,,,,,,,,
151214_1046,1,subjects,7,10,1,0,0,0,0,0,0,0,0,0,2.02,0,0,0,3,3,5,0,-,-,-,-,-,-16.86390533,-28.78787879,-,-,10,2,6,7,9,14,1,3,974,1,0.26,2.02,3,5,2,3,1,6,196,-,99999,,,,,,,,,,,,,,,,,,,,,,,,,,,,,,,,,,,
151214_1046,1,subjects,7,11,1,0,0,0,0,0,0,0,0,0,6.54,0,0,0,1,1,4,0,-,-,-,-,-,8.801775148,-19.6969697,-,-,11,1,4,5,16,18,1,5,1000,5,0.98,6.54,5,5,5,5,5,7,199,-,99999,,,,,,,,,,,,,,,,,,,,,,,,,,,,,,,,,,,
151214_1046,1,subjects,7,12,1,0,0,0,0,0,0,0,0,0,5.7,0,0,0,2,2,3,0,-,-,-,-,-,42.23372781,-20.26515152,-,-,12,3,8,13,15,17,1,7,99999,4,0.7,5.7,7,6,7,5,4,5,199,-,99999,,,,,,,,,,,,,,,,,,,,,,,,,,,,,,,,,,,
151214_1046,1,subjects,7,13,1,0,0,0,0,0,0,0,0,0,5.98,0,0,0,2,2,4,0,-,-,-,-,-,17.08579882,-28.97727273,-,-,13,3,8,12,15,17,1,5,987,4,0.78,5.98,5,6,7,7,4,5,188,-,989,,,,,,,,,,,,,,,,,,,,,,,,,,,,,,,,,,,
151214_1046,1,subjects,7,14,1,0,0,0,0,0,0,0,0,0,1.54,0,0,0,3,3,6,0,-,-,-,-,-,26.25739645,-32.38636364,-,-,14,2,6,7,9,10,1,6,979,1,0.14,1.54,6,5,2,3,1,3,197,-,980,,,,,,,,,,,,,,,,,,,,,,,,,,,,,,,,,,,
151214_1046,1,subjects,7,15,1,0,0,0,0,0,0,0,0,0,6.18,0,0,0,2,2,5,0,-,-,-,-,-,3.624260355,-25.75757576,-,-,15,3,8,12,13,17,1,4,993,4,0.82,6.18,4,6,7,7,5,5,195,-,995,,,,,,,,,,,,,,,,,,,,,,,,,,,,,,,,,,,
151214_1046,1,subjects,7,16,1,0,0,0,0,0,0,0,0,0,6.66,0,0,0,1,1,5,0,-,-,-,-,-,8.949704142,-22.91666667,-,-,16,1,4,5,11,18,1,5,998,5,0.98,6.66,5,5,5,5,5,7,193,-,99999,,,,,,,,,,,,,,,,,,,,,,,,,,,,,,,,,,,
151214_1046,1,subjects,7,17,1,0,0,0,0,0,0,0,0,0,5.86,0,0,0,2,2,6,0,-,-,-,-,-,15.75443787,-31.81818182,-,-,17,3,8,12,13,15,1,5,998,4,0.78,5.86,5,6,7,7,5,4,198,-,99999,,,,,,,,,,,,,,,,,,,,,,,,,,,,,,,,,,,
151214_1046,1,subjects,7,18,1,0,0,0,0,0,0,0,0,0,6.38,0,0,0,1,1,6,0,-,-,-,-,-,42.23372781,-19.88636364,-,-,18,1,4,5,11,16,1,7,995,5,0.9,6.38,7,5,5,5,5,5,199,-,997,,,,,,,,,,,,,,,,,,,,,,,,,,,,,,,,,,,
151214_1046,1,globals,Period,NumPeriods,RepeatTreatment,numSubjects,groupSize,numGroups,TRUE,FALSE,Choices,prof,minChoice,fee,rate,a,b,c,choice1,choice2,choice3,choice4,choice5,InfoTime,Time,LastPeriod,groupID,groupIDs[1],groupIDs[2],groupIDs[3],groupIDs[4],groupIDs[5],groupIDs[6],groupIDs[7],groupIDs[8],groupIDs[9],groupIDs[10],groupIDs[11],groupIDs[12],groupIDs[13],groupIDs[14],groupIDs[15],groupIDs[16],groupIDs[17],groupIDs[18],subjectID,pointID,randID,id,au[1],au[2],au[3],au[4],au[5],au[6],au[7],au[8],au[9],au[10],au[11],au[12],au[13],au[14],au[15],au[16],au[17],au[18],Role[1],Role[2],Role[3],Role[4],Role[5],Role[6],Role[7],Role[8],Role[9],Role[10],Role[11],Role[12],Role[13],Role[14],Role[15],Role[16],Role[17],Role[18],i,g
151214_1046,1,globals,8,10,0,18,6,3,1,0,0,0,0,8,1,0.2,0.04,0.18,0,0,0,0,0,200,1000,10,4,1,3,2,1,2,3,1,2,3,2,3,2,1,1,2,3,3,1,19,1,1,1,1,1,1,1,1,1,1,1,1,1,1,1,1,1,1,1,1,1,1,1,1,2,2,2,3,3,3,4,4,5,4,5,6,5,6,6,19,0
151214_1046,1,subjects,Period,Subject,Group,Profit,TotalProfit,Participate,payoff[1],payoff[2],payoff[3],payoff[4],payoff[5],payoff[6],payoff[7],payoff[8],payoff[9],payoff[10],GroupID,firstGroupID,role,button,Input11,Input12,Input13,Input14,Input15,x,y,TimeContinueComprehensionPayoffsOK,TimeContinueGroupRandomizationMessageOK,r0,r1,r2,r3,r4,r5,ready,Choices,TimeOKMainStageOK,minChoice,prof,payment,choice0,choice1,choice2,choice3,choice4,choice5,TimeContinueInfornationOK,TimePlotSelectComprehensionPayoffsOK,TimePlotSelectMainStageOK,,,,,,,,,,,,,,,,,,,,,,,,,,,,,,,,,,,
151214_1046,1,subjects,8,1,1,0,0,0,0,0,0,0,0,0,0,7.76,0,0,1,1,1,0,-,-,-,-,-,15.75443787,-31.43939394,-,-,1,4,5,11,16,18,1,5,99999,5,0.98,7.76,5,7,5,7,5,7,196,-,99999,,,,,,,,,,,,,,,,,,,,,,,,,,,,,,,,,,,
151214_1046,1,subjects,8,2,1,0,0,0,0,0,0,0,0,0,0,1.96,0,0,3,3,1,0,-,-,-,-,-,-15.53254438,-25.37878788,-,-,2,6,7,9,10,14,1,3,976,1,0.26,1.96,3,1,1,1,2,4,197,-,983,,,,,,,,,,,,,,,,,,,,,,,,,,,,,,,,,,,
151214_1046,1,subjects,8,3,1,0,0,0,0,0,0,0,0,0,0,6.8,0,0,2,2,1,0,-,-,-,-,-,10.87278107,-27.84090909,-,-,3,8,12,13,15,17,1,5,99999,4,0.78,6.8,5,7,7,5,6,4,198,-,99999,,,,,,,,,,,,,,,,,,,,,,,,,,,,,,,,,,,
151214_1046,1,subjects,8,4,1,0,0,0,0,0,0,0,0,0,0,7.6,0,0,1,1,2,0,-,-,-,-,-,35.79881657,-31.25,-,-,4,1,5,11,16,18,1,7,99999,5,0.9,7.6,7,5,5,7,5,7,199,-,99999,,,,,,,,,,,,,,,,,,,,,,,,,,,,,,,,,,,
151214_1046,1,subjects,8,5,1,0,0,0,0,0,0,0,0,0,0,7.52,0,0,1,1,3,0,-,-,-,-,-,16.93786982,-20.07575758,-,-,5,1,4,11,16,18,1,5,99999,5,0.98,7.52,5,5,7,7,5,7,199,-,99999,,,,,,,,,,,,,,,,,,,,,,,,,,,,,,,,,,,
151214_1046,1,subjects,8,6,1,0,0,0,0,0,0,0,0,0,0,2.64,0,0,3,3,2,0,-,-,-,-,-,-39.71893491,-32.1969697,-,-,6,2,7,9,10,14,1,1,989,1,0.34,2.64,1,3,1,1,2,4,199,-,991,,,,,,,,,,,,,,,,,,,,,,,,,,,,,,,,,,,
151214_1046,1,subjects,8,7,1,0,0,0,0,0,0,0,0,0,0,2.24,0,0,3,3,3,0,-,-,-,-,-,-37.05621302,-20.07575758,-,-,7,2,6,9,10,14,1,1,1000,1,0.34,2.24,1,3,1,1,2,4,199,-,99999,,,,,,,,,,,,,,,,,,,,,,,,,,,,,,,,,,,
151214_1046,1,subjects,8,8,1,0,0,0,0,0,0,0,0,0,0,6.64,0,0,2,2,2,0,-,-,-,-,-,37.5739645,-19.6969697,-,-,8,3,12,13,15,17,1,7,99999,4,0.7,6.64,7,5,7,5,6,4,195,-,99999,,,,,,,,,,,,,,,,,,,,,,,,,,,,,,,,,,,
151214_1046,1,subjects,8,9,1,0,0,0,0,0,0,0,0,0,0,3.08,0,0,3,3,4,0,-,-,-,-,-,-41.86390533,-19.6969697,-,-,9,2,6,7,10,14,1,1,996,1,0.34,3.08,1,3,1,1,2,4,197,-,99999,,,,,,,,,,,,,,,,,,,,,,,,,,,,,,,,,,,
151214_1046,1,subjects,8,10,1,0,0,0,0,0,0,0,0,0,0,2.32,0,0,3,3,5,0,-,-,-,-,-,-27.36686391,-31.62878788,-,-,10,2,6,7,9,14,1,2,995,1,0.3,2.32,2,3,1,1,1,4,196,-,99999,,,,,,,,,,,,,,,,,,,,,,,,,,,,,,,,,,,
151214_1046,1,subjects,8,11,1,0,0,0,0,0,0,0,0,0,0,7.44,0,0,1,1,4,0,-,-,-,-,-,35.42899408,-32.00757576,-,-,11,1,4,5,16,18,1,7,99999,5,0.9,7.44,7,5,7,5,5,7,199,-,99999,,,,,,,,,,,,,,,,,,,,,,,,,,,,,,,,,,,
151214_1046,1,subjects,8,12,1,0,0,0,0,0,0,0,0,0,0,6.4,0,0,2,2,3,0,-,-,-,-,-,37.86982249,-26.13636364,-,-,12,3,8,13,15,17,1,7,99999,4,0.7,6.4,7,5,7,5,6,4,198,-,99999,,,,,,,,,,,,,,,,,,,,,,,,,,,,,,,,,,,
151214_1046,1,subjects,8,13,1,0,0,0,0,0,0,0,0,0,0,6.76,0,0,2,2,4,0,-,-,-,-,-,12.94378698,-32.00757576,-,-,13,3,8,12,15,17,1,5,99999,4,0.78,6.76,5,5,7,7,6,4,188,-,99999,,,,,,,,,,,,,,,,,,,,,,,,,,,,,,,,,,,
151214_1046,1,subjects,8,14,1,0,0,0,0,0,0,0,0,0,0,1.76,0,0,3,3,6,0,-,-,-,-,-,3.550295858,-32.38636364,-,-,14,2,6,7,9,10,1,4,992,1,0.22,1.76,4,3,1,1,1,2,197,-,99999,,,,,,,,,,,,,,,,,,,,,,,,,,,,,,,,,,,
151214_1046,1,subjects,8,15,1,0,0,0,0,0,0,0,0,0,0,6.92,0,0,2,2,5,0,-,-,-,-,-,23.07692308,-32.00757576,-,-,15,3,8,12,13,17,1,6,982,4,0.74,6.92,6,5,7,7,5,4,197,-,983,,,,,,,,,,,,,,,,,,,,,,,,,,,,,,,,,,,
151214_1046,1,subjects,8,16,1,0,0,0,0,0,0,0,0,0,0,7.64,0,0,1,1,5,0,-,-,-,-,-,8.801775148,-21.96969697,-,-,16,1,4,5,11,18,1,5,99999,5,0.98,7.64,5,5,7,5,7,7,196,-,99999,,,,,,,,,,,,,,,,,,,,,,,,,,,,,,,,,,,
151214_1046,1,subjects,8,17,1,0,0,0,0,0,0,0,0,0,0,6.68,0,0,2,2,6,0,-,-,-,-,-,3.99408284,-27.65151515,-,-,17,3,8,12,13,15,1,4,99999,4,0.82,6.68,4,5,7,7,5,6,197,-,99999,,,,,,,,,,,,,,,,,,,,,,,,,,,,,,,,,,,
151214_1046,1,subjects,8,18,1,0,0,0,0,0,0,0,0,0,0,7.28,0,0,1,1,6,0,-,-,-,-,-,38.75739645,-31.62878788,-,-,18,1,4,5,11,16,1,7,996,5,0.9,7.28,7,5,7,5,7,5,198,-,99999,,,,,,,,,,,,,,,,,,,,,,,,,,,,,,,,,,,
151214_1046,1,globals,Period,NumPeriods,RepeatTreatment,numSubjects,groupSize,numGroups,TRUE,FALSE,Choices,prof,minChoice,fee,rate,a,b,c,choice1,choice2,choice3,choice4,choice5,InfoTime,Time,LastPeriod,groupID,groupIDs[1],groupIDs[2],groupIDs[3],groupIDs[4],groupIDs[5],groupIDs[6],groupIDs[7],groupIDs[8],groupIDs[9],groupIDs[10],groupIDs[11],groupIDs[12],groupIDs[13],groupIDs[14],groupIDs[15],groupIDs[16],groupIDs[17],groupIDs[18],subjectID,pointID,randID,id,au[1],au[2],au[3],au[4],au[5],au[6],au[7],au[8],au[9],au[10],au[11],au[12],au[13],au[14],au[15],au[16],au[17],au[18],Role[1],Role[2],Role[3],Role[4],Role[5],Role[6],Role[7],Role[8],Role[9],Role[10],Role[11],Role[12],Role[13],Role[14],Role[15],Role[16],Role[17],Role[18],i,g
151214_1046,1,globals,9,10,0,18,6,3,1,0,0,0,0,8,1,0.2,0.04,0.18,0,0,0,0,0,200,1000,10,4,3,3,2,3,3,1,2,2,2,1,2,1,2,1,1,1,3,3,19,3,1,1,1,1,1,1,1,1,1,1,1,1,1,1,1,1,1,1,1,1,1,2,1,3,4,1,2,3,4,2,5,3,6,4,5,6,5,6,19,2
151214_1046,1,subjects,Period,Subject,Group,Profit,TotalProfit,Participate,payoff[1],payoff[2],payoff[3],payoff[4],payoff[5],payoff[6],payoff[7],payoff[8],payoff[9],payoff[10],GroupID,firstGroupID,role,button,Input11,Input12,Input13,Input14,Input15,x,y,TimeContinueComprehensionPayoffsOK,TimeContinueGroupRandomizationMessageOK,r0,r1,r2,r3,r4,r5,ready,Choices,TimeOKMainStageOK,minChoice,prof,payment,choice0,choice1,choice2,choice3,choice4,choice5,TimeContinueInfornationOK,TimePlotSelectComprehensionPayoffsOK,TimePlotSelectMainStageOK,,,,,,,,,,,,,,,,,,,,,,,,,,,,,,,,,,,
151214_1046,1,subjects,9,1,1,0,0,0,0,0,0,0,0,0,0,0,8.74,0,1,1,1,0,-,-,-,-,-,10.72485207,-32.38636364,-,-,1,4,5,11,16,18,1,5,99999,5,0.98,8.74,5,5,6,5,6,7,198,-,99999,,,,,,,,,,,,,,,,,,,,,,,,,,,,,,,,,,,
151214_1046,1,subjects,9,2,1,0,0,0,0,0,0,0,0,0,0,0,2.18,0,3,3,1,0,-,-,-,-,-,1.923076923,-32.00757576,-,-,2,6,7,9,10,14,1,4,99999,1,0.22,2.18,4,2,3,1,2,4,199,-,99999,,,,,,,,,,,,,,,,,,,,,,,,,,,,,,,,,,,
151214_1046,1,subjects,9,3,1,0,0,0,0,0,0,0,0,0,0,0,7.54,0,2,2,1,0,-,-,-,-,-,21.81952663,-24.62121212,-,-,3,8,12,13,15,17,1,6,994,4,0.74,7.54,6,4,7,4,5,4,195,-,99999,,,,,,,,,,,,,,,,,,,,,,,,,,,,,,,,,,,
151214_1046,1,subjects,9,4,1,0,0,0,0,0,0,0,0,0,0,0,8.58,0,1,1,2,0,-,-,-,-,-,12.27810651,-24.62121212,-,-,4,1,5,11,16,18,1,5,99999,5,0.98,8.58,5,5,6,5,6,7,198,-,99999,,,,,,,,,,,,,,,,,,,,,,,,,,,,,,,,,,,
151214_1046,1,subjects,9,5,1,0,0,0,0,0,0,0,0,0,0,0,8.46,0,1,1,3,0,-,-,-,-,-,22.92899408,-22.91666667,-,-,5,1,4,11,16,18,1,6,99999,5,0.94,8.46,6,5,5,5,6,7,199,-,99999,,,,,,,,,,,,,,,,,,,,,,,,,,,,,,,,,,,
151214_1046,1,subjects,9,6,1,0,0,0,0,0,0,0,0,0,0,0,2.94,0,3,3,2,0,-,-,-,-,-,-27.29289941,-25,-,-,6,2,7,9,10,14,1,2,99999,1,0.3,2.94,2,4,3,1,2,4,199,-,99999,,,,,,,,,,,,,,,,,,,,,,,,,,,,,,,,,,,
151214_1046,1,subjects,9,7,1,0,0,0,0,0,0,0,0,0,0,0,2.5,0,3,3,3,0,-,-,-,-,-,-9.023668639,-29.92424242,-,-,7,2,6,9,10,14,1,3,996,1,0.26,2.5,3,4,2,1,2,4,197,-,99999,,,,,,,,,,,,,,,,,,,,,,,,,,,,,,,,,,,
151214_1046,1,subjects,9,8,1,0,0,0,0,0,0,0,0,0,0,0,7.46,0,2,2,2,0,-,-,-,-,-,0.369822485,-19.6969697,-,-,8,3,12,13,15,17,1,4,995,4,0.82,7.46,4,6,7,4,5,4,197,-,99999,,,,,,,,,,,,,,,,,,,,,,,,,,,,,,,,,,,
151214_1046,1,subjects,9,9,1,0,0,0,0,0,0,0,0,0,0,0,3.42,0,3,3,4,0,-,-,-,-,-,-36.24260355,-23.10606061,-,-,9,2,6,7,10,14,1,1,995,1,0.34,3.42,1,4,2,3,2,4,196,-,99999,,,,,,,,,,,,,,,,,,,,,,,,,,,,,,,,,,,
151214_1046,1,subjects,9,10,1,0,0,0,0,0,0,0,0,0,0,0,2.62,0,3,3,5,0,-,-,-,-,-,-30.17751479,-25.18939394,-,-,10,2,6,7,9,14,1,2,992,1,0.3,2.62,2,4,2,3,1,4,190,-,995,,,,,,,,,,,,,,,,,,,,,,,,,,,,,,,,,,,
151214_1046,1,subjects,9,11,1,0,0,0,0,0,0,0,0,0,0,0,8.42,0,1,1,4,0,-,-,-,-,-,14.64497041,-32.38636364,-,-,11,1,4,5,16,18,1,5,99999,5,0.98,8.42,5,5,5,6,6,7,199,-,99999,,,,,,,,,,,,,,,,,,,,,,,,,,,,,,,,,,,
151214_1046,1,subjects,9,12,1,0,0,0,0,0,0,0,0,0,0,0,7.1,0,2,2,3,0,-,-,-,-,-,40.23668639,-22.91666667,-,-,12,3,8,13,15,17,1,7,99999,4,0.7,7.1,7,6,4,4,5,4,199,-,99999,,,,,,,,,,,,,,,,,,,,,,,,,,,,,,,,,,,
151214_1046,1,subjects,9,13,1,0,0,0,0,0,0,0,0,0,0,0,7.58,0,2,2,4,0,-,-,-,-,-,3.99408284,-25.9469697,-,-,13,3,8,12,15,17,1,4,992,4,0.82,7.58,4,6,4,7,5,4,195,-,993,,,,,,,,,,,,,,,,,,,,,,,,,,,,,,,,,,,
151214_1046,1,subjects,9,14,1,0,0,0,0,0,0,0,0,0,0,0,1.98,0,3,3,6,0,-,-,-,-,-,2.440828402,-19.6969697,-,-,14,2,6,7,9,10,1,4,985,1,0.22,1.98,4,4,2,3,1,2,198,-,99999,,,,,,,,,,,,,,,,,,,,,,,,,,,,,,,,,,,
151214_1046,1,subjects,9,15,1,0,0,0,0,0,0,0,0,0,0,0,7.7,0,2,2,5,0,-,-,-,-,-,15.90236686,-32.38636364,-,-,15,3,8,12,13,17,1,5,99999,4,0.78,7.7,5,6,4,7,4,4,198,-,99999,,,,,,,,,,,,,,,,,,,,,,,,,,,,,,,,,,,
151214_1046,1,subjects,9,16,1,0,0,0,0,0,0,0,0,0,0,0,8.58,0,1,1,5,0,-,-,-,-,-,24.48224852,-24.81060606,-,-,16,1,4,5,11,18,1,6,99999,5,0.94,8.58,6,5,5,6,5,7,196,-,99999,,,,,,,,,,,,,,,,,,,,,,,,,,,,,,,,,,,
151214_1046,1,subjects,9,17,1,0,0,0,0,0,0,0,0,0,0,0,7.5,0,2,2,6,0,-,-,-,-,-,0.073964497,-25,-,-,17,3,8,12,13,15,1,4,99999,4,0.82,7.5,4,6,4,7,4,5,199,-,99999,,,,,,,,,,,,,,,,,,,,,,,,,,,,,,,,,,,
151214_1046,1,subjects,9,18,1,0,0,0,0,0,0,0,0,0,0,0,8.18,0,1,1,6,0,-,-,-,-,-,40.97633136,-19.88636364,-,-,18,1,4,5,11,16,1,7,99999,5,0.9,8.18,7,5,5,6,5,6,195,-,99999,,,,,,,,,,,,,,,,,,,,,,,,,,,,,,,,,,,
151214_1046,1,globals,Period,NumPeriods,RepeatTreatment,numSubjects,groupSize,numGroups,TRUE,FALSE,Choices,prof,minChoice,fee,rate,a,b,c,choice1,choice2,choice3,choice4,choice5,InfoTime,Time,LastPeriod,groupID,groupIDs[1],groupIDs[2],groupIDs[3],groupIDs[4],groupIDs[5],groupIDs[6],groupIDs[7],groupIDs[8],groupIDs[9],groupIDs[10],groupIDs[11],groupIDs[12],groupIDs[13],groupIDs[14],groupIDs[15],groupIDs[16],groupIDs[17],groupIDs[18],subjectID,pointID,randID,id,au[1],au[2],au[3],au[4],au[5],au[6],au[7],au[8],au[9],au[10],au[11],au[12],au[13],au[14],au[15],au[16],au[17],au[18],Role[1],Role[2],Role[3],Role[4],Role[5],Role[6],Role[7],Role[8],Role[9],Role[10],Role[11],Role[12],Role[13],Role[14],Role[15],Role[16],Role[17],Role[18],i,g
151214_1046,1,globals,10,10,0,18,6,3,1,0,0,0,0,8,1,0.2,0.04,0.18,0,0,0,0,0,200,1000,10,4,2,2,3,1,2,3,2,3,1,3,1,1,2,3,3,1,1,2,19,2,2,1,1,1,1,1,1,1,1,1,1,1,1,1,1,1,1,1,1,1,1,2,1,1,3,2,4,3,2,4,3,4,5,5,6,5,6,6,19,1
151214_1046,1,subjects,Period,Subject,Group,Profit,TotalProfit,Participate,payoff[1],payoff[2],payoff[3],payoff[4],payoff[5],payoff[6],payoff[7],payoff[8],payoff[9],payoff[10],GroupID,firstGroupID,role,button,Input11,Input12,Input13,Input14,Input15,x,y,TimeContinueComprehensionPayoffsOK,TimeContinueGroupRandomizationMessageOK,r0,r1,r2,r3,r4,r5,ready,Choices,TimeOKMainStageOK,minChoice,prof,payment,choice0,choice1,choice2,choice3,choice4,choice5,TimeContinueInfornationOK,TimePlotSelectComprehensionPayoffsOK,TimePlotSelectMainStageOK,,,,,,,,,,,,,,,,,,,,,,,,,,,,,,,,,,,
151214_1046,1,subjects,10,1,1,17.72,17.72,1,0,0,0,0,0,0,0,0,0,9.72,1,1,1,0,-,-,-,-,-,8.949704142,-26.32575758,-,-,1,4,5,11,16,18,1,5,99999,5,0.98,9.72,5,5,5,5,5,7,199,-,99999,,,,,,,,,,,,,,,,,,,,,,,,,,,,,,,,,,,
151214_1046,1,subjects,10,2,1,10.44,10.44,1,0,0,0,0,0,0,0,0,0,2.44,3,3,1,0,-,-,-,-,-,-9.541420118,-27.08333333,-,-,2,6,7,9,10,14,1,3,997,1,0.26,2.44,3,1,1,1,2,7,199,-,99999,,,,,,,,,,,,,,,,,,,,,,,,,,,,,,,,,,,
151214_1046,1,subjects,10,3,1,16.08,16.08,1,0,0,0,0,0,0,0,0,0,8.08,2,2,1,0,-,-,-,-,-,29.9556213,-27.84090909,-,-,3,8,12,13,15,17,1,6,994,3,0.54,8.08,6,4,7,6,3,6,198,-,995,,,,,,,,,,,,,,,,,,,,,,,,,,,,,,,,,,,
151214_1046,1,subjects,10,4,1,17.56,17.56,1,0,0,0,0,0,0,0,0,0,9.56,1,1,2,0,-,-,-,-,-,16.49408284,-31.06060606,-,-,4,1,5,11,16,18,1,5,992,5,0.98,9.56,5,5,5,5,5,7,195,-,994,,,,,,,,,,,,,,,,,,,,,,,,,,,,,,,,,,,
151214_1046,1,subjects,10,5,1,17.44,17.44,1,0,0,0,0,0,0,0,0,0,9.44,1,1,3,0,-,-,-,-,-,16.56804734,-29.35606061,-,-,5,1,4,11,16,18,1,5,99999,5,0.98,9.44,5,5,5,5,5,7,199,-,99999,,,,,,,,,,,,,,,,,,,,,,,,,,,,,,,,,,,
151214_1046,1,subjects,10,6,1,11.28,11.28,1,0,0,0,0,0,0,0,0,0,3.28,3,3,2,0,-,-,-,-,-,-40.16272189,-22.91666667,-,-,6,2,7,9,10,14,1,1,996,1,0.34,3.28,1,3,1,1,2,7,199,-,99999,,,,,,,,,,,,,,,,,,,,,,,,,,,,,,,,,,,
151214_1046,1,subjects,10,7,1,10.84,10.84,1,0,0,0,0,0,0,0,0,0,2.84,3,3,3,0,-,-,-,-,-,-37.20414201,-32.1969697,-,-,7,2,6,9,10,14,1,1,997,1,0.34,2.84,1,3,1,1,2,7,199,-,99999,,,,,,,,,,,,,,,,,,,,,,,,,,,,,,,,,,,
151214_1046,1,subjects,10,8,1,16.08,16.08,1,0,0,0,0,0,0,0,0,0,8.08,2,2,2,0,-,-,-,-,-,-0.073964497,-25,-,-,8,3,12,13,15,17,1,4,996,3,0.62,8.08,4,6,7,6,3,6,198,-,99999,,,,,,,,,,,,,,,,,,,,,,,,,,,,,,,,,,,
151214_1046,1,subjects,10,9,1,11.76,11.76,1,0,0,0,0,0,0,0,0,0,3.76,3,3,4,0,-,-,-,-,-,-41.49408284,-31.81818182,-,-,9,2,6,7,10,14,1,1,989,1,0.34,3.76,1,3,1,1,2,7,198,-,995,,,,,,,,,,,,,,,,,,,,,,,,,,,,,,,,,,,
151214_1046,1,subjects,10,10,1,10.92,10.92,1,0,0,0,0,0,0,0,0,0,2.92,3,3,5,0,-,-,-,-,-,-23.66863905,-20.45454545,-,-,10,2,6,7,9,14,1,2,995,1,0.3,2.92,2,3,1,1,1,7,198,-,99999,,,,,,,,,,,,,,,,,,,,,,,,,,,,,,,,,,,
151214_1046,1,subjects,10,11,1,17.4,17.4,1,0,0,0,0,0,0,0,0,0,9.4,1,1,4,0,-,-,-,-,-,16.93786982,-29.73484848,-,-,11,1,4,5,16,18,1,5,1000,5,0.98,9.4,5,5,5,5,5,7,199,-,99999,,,,,,,,,,,,,,,,,,,,,,,,,,,,,,,,,,,
151214_1046,1,subjects,10,12,1,15.6,15.6,1,0,0,0,0,0,0,0,0,0,7.6,2,2,3,0,-,-,-,-,-,42.4556213,-20.45454545,-,-,12,3,8,13,15,17,1,7,99999,3,0.5,7.6,7,6,4,6,3,6,199,-,99999,,,,,,,,,,,,,,,,,,,,,,,,,,,,,,,,,,,
151214_1046,1,subjects,10,13,1,16.12,16.12,1,0,0,0,0,0,0,0,0,0,8.12,2,2,4,0,-,-,-,-,-,21.81952663,-31.06060606,-,-,13,3,8,12,15,17,1,6,980,3,0.54,8.12,6,6,4,7,3,6,195,-,983,,,,,,,,,,,,,,,,,,,,,,,,,,,,,,,,,,,
151214_1046,1,subjects,10,14,1,10.08,10.08,1,0,0,0,0,0,0,0,0,0,2.08,3,3,6,0,-,-,-,-,-,43.12130178,-25,-,-,14,2,6,7,9,10,1,7,99999,1,0.1,2.08,7,3,1,1,1,2,199,-,99999,,,,,,,,,,,,,,,,,,,,,,,,,,,,,,,,,,,
151214_1046,1,subjects,10,15,1,16.36,16.36,1,0,0,0,0,0,0,0,0,0,8.36,2,2,5,0,-,-,-,-,-,-9.023668639,-29.54545455,-,-,15,3,8,12,13,17,1,3,99999,3,0.66,8.36,3,6,4,7,6,6,199,-,99999,,,,,,,,,,,,,,,,,,,,,,,,,,,,,,,,,,,
151214_1046,1,subjects,10,16,1,17.56,17.56,1,0,0,0,0,0,0,0,0,0,9.56,1,1,5,0,-,-,-,-,-,11.76035503,-22.34848485,-,-,16,1,4,5,11,18,1,5,99999,5,0.98,9.56,5,5,5,5,5,7,197,-,99999,,,,,,,,,,,,,,,,,,,,,,,,,,,,,,,,,,,
151214_1046,1,subjects,10,17,1,16.04,16.04,1,0,0,0,0,0,0,0,0,0,8.04,2,2,6,0,-,-,-,-,-,24.9260355,-32.1969697,-,-,17,3,8,12,13,15,1,6,993,3,0.54,8.04,6,6,4,7,6,3,198,-,995,,,,,,,,,,,,,,,,,,,,,,,,,,,,,,,,,,,
151214_1046,1,subjects,10,18,1,17.08,17.08,1,0,0,0,0,0,0,0,0,0,9.08,1,1,6,0,-,-,-,-,-,43.12130178,-30.11363636,-,-,18,1,4,5,11,16,1,7,99999,5,0.9,9.08,7,5,5,5,5,5,199,-,99999,,,,,,,,,,,,,,,,,,,,,,,,,,,,,,,,,,,
151214_1046,1,summary,Period,,,,,,,,,,,,,,,,,,,,,,,,,,,,,,,,,,,,,,,,,,,,,,,,,,,,,,,,,,,,,,,,,,,,,,,,,,,,,,,,,,,,
151214_1046,1,summary,1,,,,,,,,,,,,,,,,,,,,,,,,,,,,,,,,,,,,,,,,,,,,,,,,,,,,,,,,,,,,,,,,,,,,,,,,,,,,,,,,,,,,
151214_1046,1,summary,2,,,,,,,,,,,,,,,,,,,,,,,,,,,,,,,,,,,,,,,,,,,,,,,,,,,,,,,,,,,,,,,,,,,,,,,,,,,,,,,,,,,,
151214_1046,1,summary,3,,,,,,,,,,,,,,,,,,,,,,,,,,,,,,,,,,,,,,,,,,,,,,,,,,,,,,,,,,,,,,,,,,,,,,,,,,,,,,,,,,,,
151214_1046,1,summary,4,,,,,,,,,,,,,,,,,,,,,,,,,,,,,,,,,,,,,,,,,,,,,,,,,,,,,,,,,,,,,,,,,,,,,,,,,,,,,,,,,,,,
151214_1046,1,summary,5,,,,,,,,,,,,,,,,,,,,,,,,,,,,,,,,,,,,,,,,,,,,,,,,,,,,,,,,,,,,,,,,,,,,,,,,,,,,,,,,,,,,
151214_1046,1,summary,6,,,,,,,,,,,,,,,,,,,,,,,,,,,,,,,,,,,,,,,,,,,,,,,,,,,,,,,,,,,,,,,,,,,,,,,,,,,,,,,,,,,,
151214_1046,1,summary,7,,,,,,,,,,,,,,,,,,,,,,,,,,,,,,,,,,,,,,,,,,,,,,,,,,,,,,,,,,,,,,,,,,,,,,,,,,,,,,,,,,,,
151214_1046,1,summary,8,,,,,,,,,,,,,,,,,,,,,,,,,,,,,,,,,,,,,,,,,,,,,,,,,,,,,,,,,,,,,,,,,,,,,,,,,,,,,,,,,,,,
151214_1046,1,summary,9,,,,,,,,,,,,,,,,,,,,,,,,,,,,,,,,,,,,,,,,,,,,,,,,,,,,,,,,,,,,,,,,,,,,,,,,,,,,,,,,,,,,
151214_1046,1,summary,10,,,,,,,,,,,,,,,,,,,,,,,,,,,,,,,,,,,,,,,,,,,,,,,,,,,,,,,,,,,,,,,,,,,,,,,,,,,,,,,,,,,,
151214_1046,1,session,Subject,FinalProfit,ShowUpFee,ShowUpFeeInvested,MoneyAdded,MoneyToPay,MoneyEarned,,,,,,,,,,,,,,,,,,,,,,,,,,,,,,,,,,,,,,,,,,,,,,,,,,,,,,,,,,,,,,,,,,,,,,,,,,,,,,
151214_1046,1,session,1,17.72,0,0,0,17.72,17.72,,,,,,,,,,,,,,,,,,,,,,,,,,,,,,,,,,,,,,,,,,,,,,,,,,,,,,,,,,,,,,,,,,,,,,,,,,,,,,
151214_1046,1,session,2,10.44,0,0,0,10.44,10.44,,,,,,,,,,,,,,,,,,,,,,,,,,,,,,,,,,,,,,,,,,,,,,,,,,,,,,,,,,,,,,,,,,,,,,,,,,,,,,
151214_1046,1,session,3,16.08,0,0,0,16.08,16.08,,,,,,,,,,,,,,,,,,,,,,,,,,,,,,,,,,,,,,,,,,,,,,,,,,,,,,,,,,,,,,,,,,,,,,,,,,,,,,
151214_1046,1,session,4,17.56,0,0,0,17.56,17.56,,,,,,,,,,,,,,,,,,,,,,,,,,,,,,,,,,,,,,,,,,,,,,,,,,,,,,,,,,,,,,,,,,,,,,,,,,,,,,
151214_1046,1,session,5,17.44,0,0,0,17.44,17.44,,,,,,,,,,,,,,,,,,,,,,,,,,,,,,,,,,,,,,,,,,,,,,,,,,,,,,,,,,,,,,,,,,,,,,,,,,,,,,
151214_1046,1,session,6,11.28,0,0,0,11.28,11.28,,,,,,,,,,,,,,,,,,,,,,,,,,,,,,,,,,,,,,,,,,,,,,,,,,,,,,,,,,,,,,,,,,,,,,,,,,,,,,
151214_1046,1,session,7,10.84,0,0,0,10.84,10.84,,,,,,,,,,,,,,,,,,,,,,,,,,,,,,,,,,,,,,,,,,,,,,,,,,,,,,,,,,,,,,,,,,,,,,,,,,,,,,
151214_1046,1,session,8,16.08,0,0,0,16.08,16.08,,,,,,,,,,,,,,,,,,,,,,,,,,,,,,,,,,,,,,,,,,,,,,,,,,,,,,,,,,,,,,,,,,,,,,,,,,,,,,
151214_1046,1,session,9,11.76,0,0,0,11.76,11.76,,,,,,,,,,,,,,,,,,,,,,,,,,,,,,,,,,,,,,,,,,,,,,,,,,,,,,,,,,,,,,,,,,,,,,,,,,,,,,
151214_1046,1,session,10,10.92,0,0,0,10.92,10.92,,,,,,,,,,,,,,,,,,,,,,,,,,,,,,,,,,,,,,,,,,,,,,,,,,,,,,,,,,,,,,,,,,,,,,,,,,,,,,
151214_1046,1,session,11,17.4,0,0,0,17.4,17.4,,,,,,,,,,,,,,,,,,,,,,,,,,,,,,,,,,,,,,,,,,,,,,,,,,,,,,,,,,,,,,,,,,,,,,,,,,,,,,
151214_1046,1,session,12,15.6,0,0,0,15.6,15.6,,,,,,,,,,,,,,,,,,,,,,,,,,,,,,,,,,,,,,,,,,,,,,,,,,,,,,,,,,,,,,,,,,,,,,,,,,,,,,
151214_1046,1,session,13,16.12,0,0,0,16.12,16.12,,,,,,,,,,,,,,,,,,,,,,,,,,,,,,,,,,,,,,,,,,,,,,,,,,,,,,,,,,,,,,,,,,,,,,,,,,,,,,
151214_1046,1,session,14,10.08,0,0,0,10.08,10.08,,,,,,,,,,,,,,,,,,,,,,,,,,,,,,,,,,,,,,,,,,,,,,,,,,,,,,,,,,,,,,,,,,,,,,,,,,,,,,
151214_1046,1,session,15,16.36,0,0,0,16.36,16.36,,,,,,,,,,,,,,,,,,,,,,,,,,,,,,,,,,,,,,,,,,,,,,,,,,,,,,,,,,,,,,,,,,,,,,,,,,,,,,
151214_1046,1,session,16,17.56,0,0,0,17.56,17.56,,,,,,,,,,,,,,,,,,,,,,,,,,,,,,,,,,,,,,,,,,,,,,,,,,,,,,,,,,,,,,,,,,,,,,,,,,,,,,
151214_1046,1,session,17,16.04,0,0,0,16.04,16.04,,,,,,,,,,,,,,,,,,,,,,,,,,,,,,,,,,,,,,,,,,,,,,,,,,,,,,,,,,,,,,,,,,,,,,,,,,,,,,
151214_1046,1,session,18,17.08,0,0,0,17.08,17.08,,,,,,,,,,,,,,,,,,,,,,,,,,,,,,,,,,,,,,,,,,,,,,,,,,,,,,,,,,,,,,,,,,,,,,,,,,,,,,