160222_1450,1,globals,Period,NumPeriods,RepeatTreatment,numSubjects,groupSize,numGroups,TRUE,FALSE,Choices,prof,minChoice,fee,rate,a,b,c,choice1,choice2,choice3,choice4,choice5,InfoTime,Time,LastPeriod,groupID,groupIDs[1],groupIDs[2],groupIDs[3],groupIDs[4],groupIDs[5],groupIDs[6],groupIDs[7],groupIDs[8],groupIDs[9],groupIDs[10],groupIDs[11],groupIDs[12],groupIDs[13],groupIDs[14],groupIDs[15],groupIDs[16],groupIDs[17],groupIDs[18],subjectID,pointID,randID,id,au[1],au[2],au[3],au[4],au[5],au[6],au[7],au[8],au[9],au[10],au[11],au[12],au[13],au[14],au[15],au[16],au[17],au[18],Role[1],Role[2],Role[3],Role[4],Role[5],Role[6],Role[7],Role[8],Role[9],Role[10],Role[11],Role[12],Role[13],Role[14],Role[15],Role[16],Role[17],Role[18],i,g
160222_1450,1,globals,1,10,0,18,6,3,1,0,0,0,0,8,1,0.2,0.04,0.18,0,0,0,0,0,200,1000,10,4,2,1,3,1,2,2,3,2,1,2,1,3,3,3,3,1,2,1,19,2,1,1,1,1,1,1,1,1,1,1,1,1,1,1,1,1,1,1,1,1,1,1,1,2,2,3,2,4,3,5,4,3,4,5,6,5,6,6,19,0
160222_1450,1,subjects,Period,Subject,Group,Profit,TotalProfit,Participate,payoff[1],payoff[2],payoff[3],payoff[4],payoff[5],payoff[6],payoff[7],payoff[8],payoff[9],payoff[10],GroupID,firstGroupID,role,button,Input11,Input12,Input13,Input14,Input15,x,y,TimeContinueComprehensionPayoffsOK,TimeContinueGroupRandomizationMessageOK,r0,r1,r2,r3,r4,r5,ready,Choices,TimeOKMainStageOK,minChoice,prof,payment,choice0,choice1,choice2,choice3,choice4,choice5,TimeContinueInfornationOK,TimePlotSelectMainStageOK,TimePlotSelectComprehensionPayoffsOK,,,,,,,,,,,,,,,,,,,,,,,,,,,,,,,,,,,
160222_1450,1,subjects,1,1,1,0,0,0,0.74,0,0,0,0,0,0,0,0,0,2,2,1,1,0.42,0.5,0.62,0.82,0.74,28.92011834,-25,143,0,1,5,6,8,10,17,1,6,984,4,0.74,0.74,6,7,4,5,7,7,193,988,146,,,,,,,,,,,,,,,,,,,,,,,,,,,,,,,,,,,
160222_1450,1,subjects,1,2,1,0,0,0,0.9,0,0,0,0,0,0,0,0,0,1,1,1,0,0.42,0.5,0.62,0.82,0.74,37.20414201,-19.6969697,142,1,2,4,9,11,16,18,1,7,929,5,0.9,0.9,7,7,5,7,7,7,194,931,0,,,,,,,,,,,,,,,,,,,,,,,,,,,,,,,,,,,
160222_1450,1,subjects,1,3,1,0,0,0,0.1,0,0,0,0,0,0,0,0,0,3,3,1,0,0.42,0.5,0.62,0.82,0.74,40.68047337,-19.88636364,167,10,3,7,12,13,14,15,1,7,996,1,0.1,0.1,7,5,7,7,7,1,197,997,0,,,,,,,,,,,,,,,,,,,,,,,,,,,,,,,,,,,
160222_1450,1,subjects,1,4,1,0,0,0,0.9,0,0,0,0,0,0,0,0,0,1,1,2,0,0.42,0.5,0.62,0.22,0.14,41.34615385,-32.00757576,109,0,4,2,9,11,16,18,1,7,998,5,0.9,0.9,7,7,5,7,7,7,186,999,0,,,,,,,,,,,,,,,,,,,,,,,,,,,,,,,,,,,
160222_1450,1,subjects,1,5,1,0,0,0,0.7,0,0,0,0,0,0,0,0,0,2,2,2,0,0.42,0.5,0.62,0.82,0.74,34.9112426,-28.03030303,143,10,5,1,6,8,10,17,1,7,999,4,0.7,0.7,7,6,4,5,7,7,195,1000,0,,,,,,,,,,,,,,,,,,,,,,,,,,,,,,,,,,,
160222_1450,1,subjects,1,6,1,0,0,0,0.82,0,0,0,0,0,0,0,0,0,2,2,3,1,0.42,0.5,0.62,0.82,0.74,3.920118343,-32.38636364,122,4,6,1,5,8,10,17,1,4,995,4,0.82,0.82,4,6,7,5,7,7,193,997,126,,,,,,,,,,,,,,,,,,,,,,,,,,,,,,,,,,,
160222_1450,1,subjects,1,7,1,0,0,0,0.18,0,0,0,0,0,0,0,0,0,3,3,2,1,0.42,0.5,0.62,0.82,0.74,16.86390533,-32.38636364,149,8,7,3,12,13,14,15,1,5,998,1,0.18,0.18,5,7,7,7,7,1,194,1000,151,,,,,,,,,,,,,,,,,,,,,,,,,,,,,,,,,,,
160222_1450,1,subjects,1,8,1,0,0,0,0.78,0,0,0,0,0,0,0,0,0,2,2,4,0,0.42,0.5,0.62,0.82,0.74,8.949704142,-25.37878788,132,8,8,1,5,6,10,17,1,5,987,4,0.78,0.78,5,6,7,4,7,7,194,989,0,,,,,,,,,,,,,,,,,,,,,,,,,,,,,,,,,,,
160222_1450,1,subjects,1,9,1,0,0,0,0.98,0,0,0,0,0,0,0,0,0,1,1,3,1,0.42,0.5,0.62,0.82,0.74,11.98224852,-31.62878788,146,7,9,2,4,11,16,18,1,5,991,5,0.98,0.98,5,7,7,7,7,7,193,991,149,,,,,,,,,,,,,,,,,,,,,,,,,,,,,,,,,,,
160222_1450,1,subjects,1,10,1,0,0,0,0.7,0,0,0,0,0,0,0,0,0,2,2,5,1,0.42,0.5,0.62,0.82,0.74,43.12130178,-32.1969697,152,9,10,1,5,6,8,17,1,7,999,4,0.7,0.7,7,6,7,4,5,7,193,1000,154,,,,,,,,,,,,,,,,,,,,,,,,,,,,,,,,,,,
160222_1450,1,subjects,1,11,1,0,0,0,0.9,0,0,0,0,0,0,0,0,0,1,1,4,1,0.42,0.5,0.62,0.82,0.74,40.38461538,-32.1969697,155,9,11,2,4,9,16,18,1,7,995,5,0.9,0.9,7,7,7,5,7,7,193,998,158,,,,,,,,,,,,,,,,,,,,,,,,,,,,,,,,,,,
160222_1450,1,subjects,1,12,1,0,0,0,0.1,0,0,0,0,0,0,0,0,0,3,3,3,1,0.42,0.5,0.62,0.82,0.74,40.38461538,-31.06060606,134,0,12,3,7,13,14,15,1,7,997,1,0.1,0.1,7,7,5,7,7,1,190,999,137,,,,,,,,,,,,,,,,,,,,,,,,,,,,,,,,,,,
160222_1450,1,subjects,1,13,1,0,0,0,0.1,0,0,0,0,0,0,0,0,0,3,3,4,1,0.42,0.5,0.62,0.82,0.74,36.31656805,-32.00757576,148,4,13,3,7,12,14,15,1,7,998,1,0.1,0.1,7,7,5,7,7,1,195,1000,149,,,,,,,,,,,,,,,,,,,,,,,,,,,,,,,,,,,
160222_1450,1,subjects,1,14,1,0,0,0,0.1,0,0,0,0,0,0,0,0,0,3,3,5,1,0.42,0.5,0.62,0.82,0.74,42.97337278,-25,115,0,14,3,7,12,13,15,1,7,994,1,0.1,0.1,7,7,5,7,7,1,188,996,120,,,,,,,,,,,,,,,,,,,,,,,,,,,,,,,,,,,
160222_1450,1,subjects,1,15,1,0,0,0,0.34,0,0,0,0,0,0,0,0,0,3,3,6,1,0.42,0.5,0.62,0.82,0.74,-42.3816568,-32.38636364,135,0,15,3,7,12,13,14,1,1,978,1,0.34,0.34,1,7,5,7,7,7,198,985,139,,,,,,,,,,,,,,,,,,,,,,,,,,,,,,,,,,,
160222_1450,1,subjects,1,16,1,0,0,0,0.9,0,0,0,0,0,0,0,0,0,1,1,5,1,0.42,0.5,0.62,0.82,0.74,35.13313609,-28.40909091,156,9,16,2,4,9,11,18,1,7,1000,5,0.9,0.9,7,7,7,5,7,7,196,99999,159,,,,,,,,,,,,,,,,,,,,,,,,,,,,,,,,,,,
160222_1450,1,subjects,1,17,1,0,0,0,0.7,0,0,0,0,0,0,0,0,0,2,2,6,1,0.42,0.5,0.62,0.82,0.74,39.42307692,-32.38636364,141,9,17,1,5,6,8,10,1,7,997,4,0.7,0.7,7,6,7,4,5,7,190,1000,143,,,,,,,,,,,,,,,,,,,,,,,,,,,,,,,,,,,
160222_1450,1,subjects,1,18,1,0,0,0,0.9,0,0,0,0,0,0,0,0,0,1,1,6,1,0.42,0.5,0.62,0.82,0.74,35.79881657,-32.00757576,152,9,18,2,4,9,11,16,1,7,998,5,0.9,0.9,7,7,7,5,7,7,191,1000,154,,,,,,,,,,,,,,,,,,,,,,,,,,,,,,,,,,,
160222_1450,1,globals,Period,NumPeriods,RepeatTreatment,numSubjects,groupSize,numGroups,TRUE,FALSE,Choices,prof,minChoice,fee,rate,a,b,c,choice1,choice2,choice3,choice4,choice5,InfoTime,Time,LastPeriod,groupID,groupIDs[1],groupIDs[2],groupIDs[3],groupIDs[4],groupIDs[5],groupIDs[6],groupIDs[7],groupIDs[8],groupIDs[9],groupIDs[10],groupIDs[11],groupIDs[12],groupIDs[13],groupIDs[14],groupIDs[15],groupIDs[16],groupIDs[17],groupIDs[18],subjectID,pointID,randID,id,au[1],au[2],au[3],au[4],au[5],au[6],au[7],au[8],au[9],au[10],au[11],au[12],au[13],au[14],au[15],au[16],au[17],au[18],Role[1],Role[2],Role[3],Role[4],Role[5],Role[6],Role[7],Role[8],Role[9],Role[10],Role[11],Role[12],Role[13],Role[14],Role[15],Role[16],Role[17],Role[18],i,g
160222_1450,1,globals,2,10,0,18,6,3,1,0,0,0,0,8,1,0.2,0.04,0.18,0,0,0,0,0,200,1000,10,4,1,2,2,1,2,2,3,2,1,1,3,1,3,3,1,2,3,3,19,2,2,1,1,1,1,1,1,1,1,1,1,1,1,1,1,1,1,1,1,1,1,1,2,2,3,4,1,5,3,4,2,5,3,4,6,6,5,6,19,2
160222_1450,1,subjects,Period,Subject,Group,Profit,TotalProfit,Participate,payoff[1],payoff[2],payoff[3],payoff[4],payoff[5],payoff[6],payoff[7],payoff[8],payoff[9],payoff[10],GroupID,firstGroupID,role,button,Input11,Input12,Input13,Input14,Input15,x,y,TimeContinueComprehensionPayoffsOK,TimeContinueGroupRandomizationMessageOK,r0,r1,r2,r3,r4,r5,ready,Choices,TimeOKMainStageOK,minChoice,prof,payment,choice0,choice1,choice2,choice3,choice4,choice5,TimeContinueInfornationOK,TimePlotSelectMainStageOK,TimePlotSelectComprehensionPayoffsOK,,,,,,,,,,,,,,,,,,,,,,,,,,,,,,,,,,,
160222_1450,1,subjects,2,1,1,0,0,0,0,1.24,0,0,0,0,0,0,0,0,2,2,1,0,-,-,-,-,-,40.31065089,-19.6969697,-,-,1,5,6,8,10,17,1,7,983,3,0.5,1.24,7,7,4,3,7,7,191,990,-,,,,,,,,,,,,,,,,,,,,,,,,,,,,,,,,,,,
160222_1450,1,subjects,2,2,1,0,0,0,0,1.8,0,0,0,0,0,0,0,0,1,1,1,0,-,-,-,-,-,41.49408284,-19.88636364,-,-,2,4,9,11,16,18,1,7,991,5,0.9,1.8,7,7,5,7,7,7,188,993,-,,,,,,,,,,,,,,,,,,,,,,,,,,,,,,,,,,,
160222_1450,1,subjects,2,3,1,0,0,0,0,0.4,0,0,0,0,0,0,0,0,3,3,1,0,-,-,-,-,-,35.0591716,-23.86363636,-,-,3,7,12,13,14,15,1,7,1000,2,0.3,0.4,7,6,6,7,4,2,199,99999,-,,,,,,,,,,,,,,,,,,,,,,,,,,,,,,,,,,,
160222_1450,1,subjects,2,4,1,0,0,0,0,1.8,0,0,0,0,0,0,0,0,1,1,2,0,-,-,-,-,-,36.46449704,-32.1969697,-,-,4,2,9,11,16,18,1,7,996,5,0.9,1.8,7,7,5,7,7,7,198,99999,-,,,,,,,,,,,,,,,,,,,,,,,,,,,,,,,,,,,
160222_1450,1,subjects,2,5,1,0,0,0,0,1.2,0,0,0,0,0,0,0,0,2,2,2,0,-,-,-,-,-,36.98224852,-32.1969697,-,-,5,1,6,8,10,17,1,7,994,3,0.5,1.2,7,7,4,3,7,7,197,996,-,,,,,,,,,,,,,,,,,,,,,,,,,,,,,,,,,,,
160222_1450,1,subjects,2,6,1,0,0,0,0,1.44,0,0,0,0,0,0,0,0,2,2,3,0,-,-,-,-,-,-0.369822485,-32.38636364,-,-,6,1,5,8,10,17,1,4,994,3,0.62,1.44,4,7,7,3,7,7,190,996,-,,,,,,,,,,,,,,,,,,,,,,,,,,,,,,,,,,,
160222_1450,1,subjects,2,7,1,0,0,0,0,0.52,0,0,0,0,0,0,0,0,3,3,2,0,-,-,-,-,-,23.00295858,-32.38636364,-,-,7,3,12,13,14,15,1,6,996,2,0.34,0.52,6,7,6,7,4,2,197,99999,-,,,,,,,,,,,,,,,,,,,,,,,,,,,,,,,,,,,
160222_1450,1,subjects,2,8,1,0,0,0,0,1.44,0,0,0,0,0,0,0,0,2,2,4,0,-,-,-,-,-,-8.875739645,-19.88636364,-,-,8,1,5,6,10,17,1,3,997,3,0.66,1.44,3,7,7,4,7,7,169,1000,-,,,,,,,,,,,,,,,,,,,,,,,,,,,,,,,,,,,
160222_1450,1,subjects,2,9,1,0,0,0,0,1.96,0,0,0,0,0,0,0,0,1,1,3,0,-,-,-,-,-,9.467455621,-25,-,-,9,2,4,11,16,18,1,5,984,5,0.98,1.96,5,7,7,7,7,7,197,986,-,,,,,,,,,,,,,,,,,,,,,,,,,,,,,,,,,,,
160222_1450,1,subjects,2,10,1,0,0,0,0,1.2,0,0,0,0,0,0,0,0,2,2,5,0,-,-,-,-,-,38.60946746,-30.87121212,-,-,10,1,5,6,8,17,1,7,99999,3,0.5,1.2,7,7,7,4,3,7,196,99999,-,,,,,,,,,,,,,,,,,,,,,,,,,,,,,,,,,,,
160222_1450,1,subjects,2,11,1,0,0,0,0,1.8,0,0,0,0,0,0,0,0,1,1,4,0,-,-,-,-,-,39.20118343,-32.1969697,-,-,11,2,4,9,16,18,1,7,998,5,0.9,1.8,7,7,7,5,7,7,198,99999,-,,,,,,,,,,,,,,,,,,,,,,,,,,,,,,,,,,,
160222_1450,1,subjects,2,12,1,0,0,0,0,0.44,0,0,0,0,0,0,0,0,3,3,3,0,-,-,-,-,-,27.95857988,-32.1969697,-,-,12,3,7,13,14,15,1,6,994,2,0.34,0.44,6,7,6,7,4,2,195,997,-,,,,,,,,,,,,,,,,,,,,,,,,,,,,,,,,,,,
160222_1450,1,subjects,2,13,1,0,0,0,0,0.4,0,0,0,0,0,0,0,0,3,3,4,0,-,-,-,-,-,38.46153846,-19.6969697,-,-,13,3,7,12,14,15,1,7,998,2,0.3,0.4,7,7,6,6,4,2,195,99999,-,,,,,,,,,,,,,,,,,,,,,,,,,,,,,,,,,,,
160222_1450,1,subjects,2,14,1,0,0,0,0,0.52,0,0,0,0,0,0,0,0,3,3,5,0,-,-,-,-,-,3.920118343,-25.18939394,-,-,14,3,7,12,13,15,1,4,99999,2,0.42,0.52,4,7,6,6,7,2,195,99999,-,,,,,,,,,,,,,,,,,,,,,,,,,,,,,,,,,,,
160222_1450,1,subjects,2,15,1,0,0,0,0,0.84,0,0,0,0,0,0,0,0,3,3,6,0,-,-,-,-,-,-28.47633136,-29.54545455,-,-,15,3,7,12,13,14,1,2,981,2,0.5,0.84,2,7,6,6,7,4,198,983,-,,,,,,,,,,,,,,,,,,,,,,,,,,,,,,,,,,,
160222_1450,1,subjects,2,16,1,0,0,0,0,1.8,0,0,0,0,0,0,0,0,1,1,5,0,-,-,-,-,-,37.5739645,-22.72727273,-,-,16,2,4,9,11,18,1,7,999,5,0.9,1.8,7,7,7,5,7,7,200,99999,-,,,,,,,,,,,,,,,,,,,,,,,,,,,,,,,,,,,
160222_1450,1,subjects,2,17,1,0,0,0,0,1.2,0,0,0,0,0,0,0,0,2,2,6,0,-,-,-,-,-,37.13017751,-32.38636364,-,-,17,1,5,6,8,10,1,7,998,3,0.5,1.2,7,7,7,4,3,7,184,99999,-,,,,,,,,,,,,,,,,,,,,,,,,,,,,,,,,,,,
160222_1450,1,subjects,2,18,1,0,0,0,0,1.8,0,0,0,0,0,0,0,0,1,1,6,0,-,-,-,-,-,42.15976331,-31.81818182,-,-,18,2,4,9,11,16,1,7,1000,5,0.9,1.8,7,7,7,5,7,7,189,99999,-,,,,,,,,,,,,,,,,,,,,,,,,,,,,,,,,,,,
160222_1450,1,globals,Period,NumPeriods,RepeatTreatment,numSubjects,groupSize,numGroups,TRUE,FALSE,Choices,prof,minChoice,fee,rate,a,b,c,choice1,choice2,choice3,choice4,choice5,InfoTime,Time,LastPeriod,groupID,groupIDs[1],groupIDs[2],groupIDs[3],groupIDs[4],groupIDs[5],groupIDs[6],groupIDs[7],groupIDs[8],groupIDs[9],groupIDs[10],groupIDs[11],groupIDs[12],groupIDs[13],groupIDs[14],groupIDs[15],groupIDs[16],groupIDs[17],groupIDs[18],subjectID,pointID,randID,id,au[1],au[2],au[3],au[4],au[5],au[6],au[7],au[8],au[9],au[10],au[11],au[12],au[13],au[14],au[15],au[16],au[17],au[18],Role[1],Role[2],Role[3],Role[4],Role[5],Role[6],Role[7],Role[8],Role[9],Role[10],Role[11],Role[12],Role[13],Role[14],Role[15],Role[16],Role[17],Role[18],i,g
160222_1450,1,globals,3,10,0,18,6,3,1,0,0,0,0,8,1,0.2,0.04,0.18,0,0,0,0,0,200,1000,10,4,3,1,3,1,3,2,3,2,2,3,1,3,2,2,1,1,2,1,19,1,2,1,1,1,1,1,1,1,1,1,1,1,1,1,1,1,1,1,1,1,1,1,2,2,3,1,4,2,3,5,3,6,4,5,4,5,6,6,19,0
160222_1450,1,subjects,Period,Subject,Group,Profit,TotalProfit,Participate,payoff[1],payoff[2],payoff[3],payoff[4],payoff[5],payoff[6],payoff[7],payoff[8],payoff[9],payoff[10],GroupID,firstGroupID,role,button,Input11,Input12,Input13,Input14,Input15,x,y,TimeContinueComprehensionPayoffsOK,TimeContinueGroupRandomizationMessageOK,r0,r1,r2,r3,r4,r5,ready,Choices,TimeOKMainStageOK,minChoice,prof,payment,choice0,choice1,choice2,choice3,choice4,choice5,TimeContinueInfornationOK,TimePlotSelectMainStageOK,TimePlotSelectComprehensionPayoffsOK,,,,,,,,,,,,,,,,,,,,,,,,,,,,,,,,,,,
160222_1450,1,subjects,3,1,1,0,0,0,0,0,1.82,0,0,0,0,0,0,0,2,2,1,0,-,-,-,-,-,8.875739645,-25.56818182,-,-,1,5,6,8,10,17,1,5,996,3,0.58,1.82,5,7,4,3,7,7,193,99999,-,,,,,,,,,,,,,,,,,,,,,,,,,,,,,,,,,,,
160222_1450,1,subjects,3,2,1,0,0,0,0,0,2.7,0,0,0,0,0,0,0,1,1,1,0,-,-,-,-,-,35.57692308,-31.62878788,-,-,2,4,9,11,16,18,1,7,99999,5,0.9,2.7,7,7,5,7,6,6,198,99999,-,,,,,,,,,,,,,,,,,,,,,,,,,,,,,,,,,,,
160222_1450,1,subjects,3,3,1,0,0,0,0,0,0.98,0,0,0,0,0,0,0,3,3,1,0,-,-,-,-,-,11.61242604,-32.38636364,-,-,3,7,12,13,14,15,1,5,99999,3,0.58,0.98,5,3,4,7,3,7,200,99999,-,,,,,,,,,,,,,,,,,,,,,,,,,,,,,,,,,,,
160222_1450,1,subjects,3,4,1,0,0,0,0,0,2.7,0,0,0,0,0,0,0,1,1,2,0,-,-,-,-,-,38.68343195,-20.26515152,-,-,4,2,9,11,16,18,1,7,99999,5,0.9,2.7,7,7,5,7,6,6,197,99999,-,,,,,,,,,,,,,,,,,,,,,,,,,,,,,,,,,,,
160222_1450,1,subjects,3,5,1,0,0,0,0,0,1.7,0,0,0,0,0,0,0,2,2,2,0,-,-,-,-,-,37.5739645,-32.38636364,-,-,5,1,6,8,10,17,1,7,99999,3,0.5,1.7,7,5,4,3,7,7,197,99999,-,,,,,,,,,,,,,,,,,,,,,,,,,,,,,,,,,,,
160222_1450,1,subjects,3,6,1,0,0,0,0,0,2.06,0,0,0,0,0,0,0,2,2,3,0,-,-,-,-,-,3.624260355,-29.35606061,-,-,6,1,5,8,10,17,1,4,99999,3,0.62,2.06,4,5,7,3,7,7,190,99999,-,,,,,,,,,,,,,,,,,,,,,,,,,,,,,,,,,,,
160222_1450,1,subjects,3,7,1,0,0,0,0,0,1.18,0,0,0,0,0,0,0,3,3,2,0,-,-,-,-,-,-14.12721893,-19.6969697,-,-,7,3,12,13,14,15,1,3,99999,3,0.66,1.18,3,5,4,7,3,7,199,99999,-,,,,,,,,,,,,,,,,,,,,,,,,,,,,,,,,,,,
160222_1450,1,subjects,3,8,1,0,0,0,0,0,2.1,0,0,0,0,0,0,0,2,2,4,0,-,-,-,-,-,-10.13313609,-31.25,-,-,8,1,5,6,10,17,1,3,996,3,0.66,2.1,3,5,7,4,7,7,195,99999,-,,,,,,,,,,,,,,,,,,,,,,,,,,,,,,,,,,,
160222_1450,1,subjects,3,9,1,0,0,0,0,0,2.94,0,0,0,0,0,0,0,1,1,3,0,-,-,-,-,-,17.08579882,-26.70454545,-,-,9,2,4,11,16,18,1,5,983,5,0.98,2.94,5,7,7,7,6,6,195,985,-,,,,,,,,,,,,,,,,,,,,,,,,,,,,,,,,,,,
160222_1450,1,subjects,3,10,1,0,0,0,0,0,1.7,0,0,0,0,0,0,0,2,2,5,0,-,-,-,-,-,40.90236686,-19.6969697,-,-,10,1,5,6,8,17,1,7,99999,3,0.5,1.7,7,5,7,4,3,7,198,99999,-,,,,,,,,,,,,,,,,,,,,,,,,,,,,,,,,,,,
160222_1450,1,subjects,3,11,1,0,0,0,0,0,2.7,0,0,0,0,0,0,0,1,1,4,0,-,-,-,-,-,43.12130178,-21.59090909,-,-,11,2,4,9,16,18,1,7,99999,5,0.9,2.7,7,7,7,5,6,6,199,99999,-,,,,,,,,,,,,,,,,,,,,,,,,,,,,,,,,,,,
160222_1450,1,subjects,3,12,1,0,0,0,0,0,1.06,0,0,0,0,0,0,0,3,3,3,0,-,-,-,-,-,-1.849112426,-32.00757576,-,-,12,3,7,13,14,15,1,4,99999,3,0.62,1.06,4,5,3,7,3,7,192,99999,-,,,,,,,,,,,,,,,,,,,,,,,,,,,,,,,,,,,
160222_1450,1,subjects,3,13,1,0,0,0,0,0,0.9,0,0,0,0,0,0,0,3,3,4,0,-,-,-,-,-,41.49408284,-30.68181818,-,-,13,3,7,12,14,15,1,7,99999,3,0.5,0.9,7,5,3,4,3,7,199,99999,-,,,,,,,,,,,,,,,,,,,,,,,,,,,,,,,,,,,
160222_1450,1,subjects,3,14,1,0,0,0,0,0,1.18,0,0,0,0,0,0,0,3,3,5,0,-,-,-,-,-,-11.09467456,-32.38636364,-,-,14,3,7,12,13,15,1,3,99999,3,0.66,1.18,3,5,3,4,7,7,198,99999,-,,,,,,,,,,,,,,,,,,,,,,,,,,,,,,,,,,,
160222_1450,1,subjects,3,15,1,0,0,0,0,0,1.34,0,0,0,0,0,0,0,3,3,6,0,-,-,-,-,-,34.9852071,-28.03030303,-,-,15,3,7,12,13,14,1,7,996,3,0.5,1.34,7,5,3,4,7,3,192,99999,-,,,,,,,,,,,,,,,,,,,,,,,,,,,,,,,,,,,
160222_1450,1,subjects,3,16,1,0,0,0,0,0,2.74,0,0,0,0,0,0,0,1,1,5,0,-,-,-,-,-,22.85502959,-25,-,-,16,2,4,9,11,18,1,6,99999,5,0.94,2.74,6,7,7,5,7,6,198,99999,-,,,,,,,,,,,,,,,,,,,,,,,,,,,,,,,,,,,
160222_1450,1,subjects,3,17,1,0,0,0,0,0,1.7,0,0,0,0,0,0,0,2,2,6,0,-,-,-,-,-,36.46449704,-32.38636364,-,-,17,1,5,6,8,10,1,7,995,3,0.5,1.7,7,5,7,4,3,7,195,99999,-,,,,,,,,,,,,,,,,,,,,,,,,,,,,,,,,,,,
160222_1450,1,subjects,3,18,1,0,0,0,0,0,2.74,0,0,0,0,0,0,0,1,1,6,0,-,-,-,-,-,23.29881657,-32.1969697,-,-,18,2,4,9,11,16,1,6,99999,5,0.94,2.74,6,7,7,5,7,6,194,99999,-,,,,,,,,,,,,,,,,,,,,,,,,,,,,,,,,,,,
160222_1450,1,globals,Period,NumPeriods,RepeatTreatment,numSubjects,groupSize,numGroups,TRUE,FALSE,Choices,prof,minChoice,fee,rate,a,b,c,choice1,choice2,choice3,choice4,choice5,InfoTime,Time,LastPeriod,groupID,groupIDs[1],groupIDs[2],groupIDs[3],groupIDs[4],groupIDs[5],groupIDs[6],groupIDs[7],groupIDs[8],groupIDs[9],groupIDs[10],groupIDs[11],groupIDs[12],groupIDs[13],groupIDs[14],groupIDs[15],groupIDs[16],groupIDs[17],groupIDs[18],subjectID,pointID,randID,id,au[1],au[2],au[3],au[4],au[5],au[6],au[7],au[8],au[9],au[10],au[11],au[12],au[13],au[14],au[15],au[16],au[17],au[18],Role[1],Role[2],Role[3],Role[4],Role[5],Role[6],Role[7],Role[8],Role[9],Role[10],Role[11],Role[12],Role[13],Role[14],Role[15],Role[16],Role[17],Role[18],i,g
160222_1450,1,globals,4,10,0,18,6,3,1,0,0,0,0,8,1,0.2,0.04,0.18,0,0,0,0,0,200,1000,10,4,1,1,2,1,2,2,3,2,3,3,1,1,2,3,2,3,1,3,19,1,1,1,1,1,1,1,1,1,1,1,1,1,1,1,1,1,1,1,1,1,1,2,1,3,2,3,1,4,2,3,4,5,5,4,6,5,6,6,19,2
160222_1450,1,subjects,Period,Subject,Group,Profit,TotalProfit,Participate,payoff[1],payoff[2],payoff[3],payoff[4],payoff[5],payoff[6],payoff[7],payoff[8],payoff[9],payoff[10],GroupID,firstGroupID,role,button,Input11,Input12,Input13,Input14,Input15,x,y,TimeContinueComprehensionPayoffsOK,TimeContinueGroupRandomizationMessageOK,r0,r1,r2,r3,r4,r5,ready,Choices,TimeOKMainStageOK,minChoice,prof,payment,choice0,choice1,choice2,choice3,choice4,choice5,TimeContinueInfornationOK,TimePlotSelectMainStageOK,TimePlotSelectComprehensionPayoffsOK,,,,,,,,,,,,,,,,,,,,,,,,,,,,,,,,,,,
160222_1450,1,subjects,4,1,1,0,0,0,0,0,0,2.44,0,0,0,0,0,0,2,2,1,0,-,-,-,-,-,0.813609467,-19.6969697,-,-,1,5,6,8,10,17,1,4,991,3,0.62,2.44,4,7,4,3,5,3,194,993,-,,,,,,,,,,,,,,,,,,,,,,,,,,,,,,,,,,,
160222_1450,1,subjects,4,2,1,0,0,0,0,0,0,3.6,0,0,0,0,0,0,1,1,1,0,-,-,-,-,-,37.20414201,-19.88636364,-,-,2,4,9,11,16,18,1,7,99999,5,0.9,3.6,7,7,5,7,5,6,199,99999,-,,,,,,,,,,,,,,,,,,,,,,,,,,,,,,,,,,,
160222_1450,1,subjects,4,3,1,0,0,0,0,0,0,1.56,0,0,0,0,0,0,3,3,1,0,-,-,-,-,-,12.35207101,-28.59848485,-,-,3,7,12,13,14,15,1,5,99999,3,0.58,1.56,5,7,4,4,3,4,199,99999,-,,,,,,,,,,,,,,,,,,,,,,,,,,,,,,,,,,,
160222_1450,1,subjects,4,4,1,0,0,0,0,0,0,3.6,0,0,0,0,0,0,1,1,2,0,-,-,-,-,-,41.42011834,-19.88636364,-,-,4,2,9,11,16,18,1,7,99999,5,0.9,3.6,7,7,5,7,5,6,199,99999,-,,,,,,,,,,,,,,,,,,,,,,,,,,,,,,,,,,,
160222_1450,1,subjects,4,5,1,0,0,0,0,0,0,2.2,0,0,0,0,0,0,2,2,2,0,-,-,-,-,-,39.64497041,-29.54545455,-,-,5,1,6,8,10,17,1,7,99999,3,0.5,2.2,7,4,4,3,5,3,195,99999,-,,,,,,,,,,,,,,,,,,,,,,,,,,,,,,,,,,,
160222_1450,1,subjects,4,6,1,0,0,0,0,0,0,2.68,0,0,0,0,0,0,2,2,3,0,-,-,-,-,-,1.035502959,-30.68181818,-,-,6,1,5,8,10,17,1,4,995,3,0.62,2.68,4,4,7,3,5,3,197,99999,-,,,,,,,,,,,,,,,,,,,,,,,,,,,,,,,,,,,
160222_1450,1,subjects,4,7,1,0,0,0,0,0,0,1.68,0,0,0,0,0,0,3,3,2,0,-,-,-,-,-,41.34615385,-32.1969697,-,-,7,3,12,13,14,15,1,7,99999,3,0.5,1.68,7,5,4,4,3,4,198,99999,-,,,,,,,,,,,,,,,,,,,,,,,,,,,,,,,,,,,
160222_1450,1,subjects,4,8,1,0,0,0,0,0,0,2.76,0,0,0,0,0,0,2,2,4,0,-,-,-,-,-,-17.01183432,-29.54545455,-,-,8,1,5,6,10,17,1,3,993,3,0.66,2.76,3,4,7,4,5,3,198,995,-,,,,,,,,,,,,,,,,,,,,,,,,,,,,,,,,,,,
160222_1450,1,subjects,4,9,1,0,0,0,0,0,0,3.92,0,0,0,0,0,0,1,1,3,0,-,-,-,-,-,15.45857988,-32.38636364,-,-,9,2,4,11,16,18,1,5,99999,5,0.98,3.92,5,7,7,7,5,6,198,99999,-,,,,,,,,,,,,,,,,,,,,,,,,,,,,,,,,,,,
160222_1450,1,subjects,4,10,1,0,0,0,0,0,0,2.28,0,0,0,0,0,0,2,2,5,0,-,-,-,-,-,17.08579882,-28.40909091,-,-,10,1,5,6,8,17,1,5,99999,3,0.58,2.28,5,4,7,4,3,3,192,99999,-,,,,,,,,,,,,,,,,,,,,,,,,,,,,,,,,,,,
160222_1450,1,subjects,4,11,1,0,0,0,0,0,0,3.6,0,0,0,0,0,0,1,1,4,0,-,-,-,-,-,39.12721893,-32.00757576,-,-,11,2,4,9,16,18,1,7,99999,5,0.9,3.6,7,7,7,5,5,6,197,99999,-,,,,,,,,,,,,,,,,,,,,,,,,,,,,,,,,,,,
160222_1450,1,subjects,4,12,1,0,0,0,0,0,0,1.68,0,0,0,0,0,0,3,3,3,0,-,-,-,-,-,1.183431953,-20.07575758,-,-,12,3,7,13,14,15,1,4,99999,3,0.62,1.68,4,5,7,4,3,4,195,99999,-,,,,,,,,,,,,,,,,,,,,,,,,,,,,,,,,,,,
160222_1450,1,subjects,4,13,1,0,0,0,0,0,0,1.52,0,0,0,0,0,0,3,3,4,0,-,-,-,-,-,4.142011834,-25.9469697,-,-,13,3,7,12,14,15,1,4,99999,3,0.62,1.52,4,5,7,4,3,4,188,99999,-,,,,,,,,,,,,,,,,,,,,,,,,,,,,,,,,,,,
160222_1450,1,subjects,4,14,1,0,0,0,0,0,0,1.84,0,0,0,0,0,0,3,3,5,0,-,-,-,-,-,-11.83431953,-23.86363636,-,-,14,3,7,12,13,15,1,3,99999,3,0.66,1.84,3,5,7,4,4,4,199,99999,-,,,,,,,,,,,,,,,,,,,,,,,,,,,,,,,,,,,
160222_1450,1,subjects,4,15,1,0,0,0,0,0,0,1.96,0,0,0,0,0,0,3,3,6,0,-,-,-,-,-,0.443786982,-25.56818182,-,-,15,3,7,12,13,14,1,4,977,3,0.62,1.96,4,5,7,4,4,3,195,980,-,,,,,,,,,,,,,,,,,,,,,,,,,,,,,,,,,,,
160222_1450,1,subjects,4,16,1,0,0,0,0,0,0,3.72,0,0,0,0,0,0,1,1,5,0,-,-,-,-,-,12.79585799,-22.72727273,-,-,16,2,4,9,11,18,1,5,99999,5,0.98,3.72,5,7,7,5,7,6,198,99999,-,,,,,,,,,,,,,,,,,,,,,,,,,,,,,,,,,,,
160222_1450,1,subjects,4,17,1,0,0,0,0,0,0,2.36,0,0,0,0,0,0,2,2,6,0,-,-,-,-,-,-12.94378698,-32.38636364,-,-,17,1,5,6,8,10,1,3,99999,3,0.66,2.36,3,4,7,4,3,5,195,99999,-,,,,,,,,,,,,,,,,,,,,,,,,,,,,,,,,,,,
160222_1450,1,subjects,4,18,1,0,0,0,0,0,0,3.68,0,0,0,0,0,0,1,1,6,0,-,-,-,-,-,22.04142012,-30.11363636,-,-,18,2,4,9,11,16,1,6,99999,5,0.94,3.68,6,7,7,5,7,5,197,99999,-,,,,,,,,,,,,,,,,,,,,,,,,,,,,,,,,,,,
160222_1450,1,globals,Period,NumPeriods,RepeatTreatment,numSubjects,groupSize,numGroups,TRUE,FALSE,Choices,prof,minChoice,fee,rate,a,b,c,choice1,choice2,choice3,choice4,choice5,InfoTime,Time,LastPeriod,groupID,groupIDs[1],groupIDs[2],groupIDs[3],groupIDs[4],groupIDs[5],groupIDs[6],groupIDs[7],groupIDs[8],groupIDs[9],groupIDs[10],groupIDs[11],groupIDs[12],groupIDs[13],groupIDs[14],groupIDs[15],groupIDs[16],groupIDs[17],groupIDs[18],subjectID,pointID,randID,id,au[1],au[2],au[3],au[4],au[5],au[6],au[7],au[8],au[9],au[10],au[11],au[12],au[13],au[14],au[15],au[16],au[17],au[18],Role[1],Role[2],Role[3],Role[4],Role[5],Role[6],Role[7],Role[8],Role[9],Role[10],Role[11],Role[12],Role[13],Role[14],Role[15],Role[16],Role[17],Role[18],i,g
160222_1450,1,globals,5,10,0,18,6,3,1,0,0,0,0,8,1,0.2,0.04,0.18,0,0,0,0,0,200,1000,10,4,1,1,3,3,2,1,2,3,3,2,3,3,2,1,2,2,1,1,19,1,2,1,1,1,1,1,1,1,1,1,1,1,1,1,1,1,1,1,1,1,1,2,1,2,1,3,2,3,4,3,5,6,4,4,5,6,5,6,19,0
160222_1450,1,subjects,Period,Subject,Group,Profit,TotalProfit,Participate,payoff[1],payoff[2],payoff[3],payoff[4],payoff[5],payoff[6],payoff[7],payoff[8],payoff[9],payoff[10],GroupID,firstGroupID,role,button,Input11,Input12,Input13,Input14,Input15,x,y,TimeContinueComprehensionPayoffsOK,TimeContinueGroupRandomizationMessageOK,r0,r1,r2,r3,r4,r5,ready,Choices,TimeOKMainStageOK,minChoice,prof,payment,choice0,choice1,choice2,choice3,choice4,choice5,TimeContinueInfornationOK,TimePlotSelectMainStageOK,TimePlotSelectComprehensionPayoffsOK,,,,,,,,,,,,,,,,,,,,,,,,,,,,,,,,,,,
160222_1450,1,subjects,5,1,1,0,0,0,0,0,0,0,3.1,0,0,0,0,0,2,2,1,0,-,-,-,-,-,-12.13017751,-23.86363636,-,-,1,5,6,8,10,17,1,3,979,3,0.66,3.1,3,6,3,3,6,5,198,980,-,,,,,,,,,,,,,,,,,,,,,,,,,,,,,,,,,,,
160222_1450,1,subjects,5,2,1,0,0,0,0,0,0,0,4.58,0,0,0,0,0,1,1,1,0,-,-,-,-,-,17.08579882,-27.27272727,-,-,2,4,9,11,16,18,1,5,99999,5,0.98,4.58,5,7,5,6,5,5,199,99999,-,,,,,,,,,,,,,,,,,,,,,,,,,,,,,,,,,,,
160222_1450,1,subjects,5,3,1,0,0,0,0,0,0,0,2.14,0,0,0,0,0,3,3,1,0,-,-,-,-,-,13.09171598,-19.6969697,-,-,3,7,12,13,14,15,1,5,99999,3,0.58,2.14,5,6,4,4,3,4,99999,99999,-,,,,,,,,,,,,,,,,,,,,,,,,,,,,,,,,,,,
160222_1450,1,subjects,5,4,1,0,0,0,0,0,0,0,4.5,0,0,0,0,0,1,1,2,0,-,-,-,-,-,38.16568047,-19.6969697,-,-,4,2,9,11,16,18,1,7,99999,5,0.9,4.5,7,5,5,6,5,5,200,99999,-,,,,,,,,,,,,,,,,,,,,,,,,,,,,,,,,,,,
160222_1450,1,subjects,5,5,1,0,0,0,0,0,0,0,2.74,0,0,0,0,0,2,2,2,0,-,-,-,-,-,22.26331361,-30.3030303,-,-,5,1,6,8,10,17,1,6,99999,3,0.54,2.74,6,3,3,3,6,5,196,99999,-,,,,,,,,,,,,,,,,,,,,,,,,,,,,,,,,,,,
160222_1450,1,subjects,5,6,1,0,0,0,0,0,0,0,3.34,0,0,0,0,0,2,2,3,0,-,-,-,-,-,-15.60650888,-24.43181818,-,-,6,1,5,8,10,17,1,3,99999,3,0.66,3.34,3,3,6,3,6,5,193,99999,-,,,,,,,,,,,,,,,,,,,,,,,,,,,,,,,,,,,
160222_1450,1,subjects,5,7,1,0,0,0,0,0,0,0,2.22,0,0,0,0,0,3,3,2,0,-,-,-,-,-,27.5147929,-28.21969697,-,-,7,3,12,13,14,15,1,6,99999,3,0.54,2.22,6,5,4,4,3,4,199,99999,-,,,,,,,,,,,,,,,,,,,,,,,,,,,,,,,,,,,
160222_1450,1,subjects,5,8,1,0,0,0,0,0,0,0,3.42,0,0,0,0,0,2,2,4,0,-,-,-,-,-,-16.93786982,-27.27272727,-,-,8,1,5,6,10,17,1,3,992,3,0.66,3.42,3,3,6,3,6,5,199,998,-,,,,,,,,,,,,,,,,,,,,,,,,,,,,,,,,,,,
160222_1450,1,subjects,5,9,1,0,0,0,0,0,0,0,4.9,0,0,0,0,0,1,1,3,0,-,-,-,-,-,16.49408284,-32.00757576,-,-,9,2,4,11,16,18,1,5,99999,5,0.98,4.9,5,5,7,6,5,5,198,99999,-,,,,,,,,,,,,,,,,,,,,,,,,,,,,,,,,,,,
160222_1450,1,subjects,5,10,1,0,0,0,0,0,0,0,2.82,0,0,0,0,0,2,2,5,0,-,-,-,-,-,29.9556213,-26.89393939,-,-,10,1,5,6,8,17,1,6,99999,3,0.54,2.82,6,3,6,3,3,5,199,99999,-,,,,,,,,,,,,,,,,,,,,,,,,,,,,,,,,,,,
160222_1450,1,subjects,5,11,1,0,0,0,0,0,0,0,4.54,0,0,0,0,0,1,1,4,0,-,-,-,-,-,27.81065089,-29.73484848,-,-,11,2,4,9,16,18,1,6,99999,5,0.94,4.54,6,5,7,5,5,5,193,99999,-,,,,,,,,,,,,,,,,,,,,,,,,,,,,,,,,,,,
160222_1450,1,subjects,5,12,1,0,0,0,0,0,0,0,2.3,0,0,0,0,0,3,3,3,0,-,-,-,-,-,0.887573964,-32.38636364,-,-,12,3,7,13,14,15,1,4,990,3,0.62,2.3,4,5,6,4,3,4,200,992,-,,,,,,,,,,,,,,,,,,,,,,,,,,,,,,,,,,,
160222_1450,1,subjects,5,13,1,0,0,0,0,0,0,0,2.14,0,0,0,0,0,3,3,4,0,-,-,-,-,-,1.25739645,-29.16666667,-,-,13,3,7,12,14,15,1,4,994,3,0.62,2.14,4,5,6,4,3,4,199,99999,-,,,,,,,,,,,,,,,,,,,,,,,,,,,,,,,,,,,
160222_1450,1,subjects,5,14,1,0,0,0,0,0,0,0,2.5,0,0,0,0,0,3,3,5,0,-,-,-,-,-,-8.949704142,-29.16666667,-,-,14,3,7,12,13,15,1,3,99999,3,0.66,2.5,3,5,6,4,4,4,199,99999,-,,,,,,,,,,,,,,,,,,,,,,,,,,,,,,,,,,,
160222_1450,1,subjects,5,15,1,0,0,0,0,0,0,0,2.58,0,0,0,0,0,3,3,6,0,-,-,-,-,-,3.550295858,-23.10606061,-,-,15,3,7,12,13,14,1,4,99999,3,0.62,2.58,4,5,6,4,4,3,198,99999,-,,,,,,,,,,,,,,,,,,,,,,,,,,,,,,,,,,,
160222_1450,1,subjects,5,16,1,0,0,0,0,0,0,0,4.7,0,0,0,0,0,1,1,5,0,-,-,-,-,-,9.023668639,-27.65151515,-,-,16,2,4,9,11,18,1,5,99999,5,0.98,4.7,5,5,7,5,6,5,199,99999,-,,,,,,,,,,,,,,,,,,,,,,,,,,,,,,,,,,,
160222_1450,1,subjects,5,17,1,0,0,0,0,0,0,0,2.94,0,0,0,0,0,2,2,6,0,-,-,-,-,-,14.49704142,-32.1969697,-,-,17,1,5,6,8,10,1,5,99999,3,0.58,2.94,5,3,6,3,3,6,199,99999,-,,,,,,,,,,,,,,,,,,,,,,,,,,,,,,,,,,,
160222_1450,1,subjects,5,18,1,0,0,0,0,0,0,0,4.66,0,0,0,0,0,1,1,6,0,-,-,-,-,-,8.801775148,-23.67424242,-,-,18,2,4,9,11,16,1,5,99999,5,0.98,4.66,5,5,7,5,6,5,197,99999,-,,,,,,,,,,,,,,,,,,,,,,,,,,,,,,,,,,,
160222_1450,1,globals,Period,NumPeriods,RepeatTreatment,numSubjects,groupSize,numGroups,TRUE,FALSE,Choices,prof,minChoice,fee,rate,a,b,c,choice1,choice2,choice3,choice4,choice5,InfoTime,Time,LastPeriod,groupID,groupIDs[1],groupIDs[2],groupIDs[3],groupIDs[4],groupIDs[5],groupIDs[6],groupIDs[7],groupIDs[8],groupIDs[9],groupIDs[10],groupIDs[11],groupIDs[12],groupIDs[13],groupIDs[14],groupIDs[15],groupIDs[16],groupIDs[17],groupIDs[18],subjectID,pointID,randID,id,au[1],au[2],au[3],au[4],au[5],au[6],au[7],au[8],au[9],au[10],au[11],au[12],au[13],au[14],au[15],au[16],au[17],au[18],Role[1],Role[2],Role[3],Role[4],Role[5],Role[6],Role[7],Role[8],Role[9],Role[10],Role[11],Role[12],Role[13],Role[14],Role[15],Role[16],Role[17],Role[18],i,g
160222_1450,1,globals,6,10,0,18,6,3,1,0,0,0,0,8,1,0.2,0.04,0.18,0,0,0,0,0,200,1000,10,4,3,2,3,3,2,1,3,1,2,2,2,1,1,3,1,2,1,3,19,2,2,1,1,1,1,1,1,1,1,1,1,1,1,1,1,1,1,1,1,1,1,1,2,3,2,1,4,2,3,4,5,3,4,5,5,6,6,6,19,2
160222_1450,1,subjects,Period,Subject,Group,Profit,TotalProfit,Participate,payoff[1],payoff[2],payoff[3],payoff[4],payoff[5],payoff[6],payoff[7],payoff[8],payoff[9],payoff[10],GroupID,firstGroupID,role,button,Input11,Input12,Input13,Input14,Input15,x,y,TimeContinueComprehensionPayoffsOK,TimeContinueGroupRandomizationMessageOK,r0,r1,r2,r3,r4,r5,ready,Choices,TimeOKMainStageOK,minChoice,prof,payment,choice0,choice1,choice2,choice3,choice4,choice5,TimeContinueInfornationOK,TimePlotSelectMainStageOK,TimePlotSelectComprehensionPayoffsOK,,,,,,,,,,,,,,,,,,,,,,,,,,,,,,,,,,,
160222_1450,1,subjects,6,1,1,0,0,0,0,0,0,0,0,3.72,0,0,0,0,2,2,1,0,-,-,-,-,-,1.849112426,-26.89393939,-,-,1,5,6,8,10,17,1,4,993,3,0.62,3.72,4,4,3,3,3,3,197,99999,-,,,,,,,,,,,,,,,,,,,,,,,,,,,,,,,,,,,
160222_1450,1,subjects,6,2,1,0,0,0,0,0,0,0,0,5.56,0,0,0,0,1,1,1,0,-,-,-,-,-,12.13017751,-32.1969697,-,-,2,4,9,11,16,18,1,5,99999,5,0.98,5.56,5,7,5,5,6,6,200,99999,-,,,,,,,,,,,,,,,,,,,,,,,,,,,,,,,,,,,
160222_1450,1,subjects,6,3,1,0,0,0,0,0,0,0,0,2.76,0,0,0,0,3,3,1,0,-,-,-,-,-,2.958579882,-32.38636364,-,-,3,7,12,13,14,15,1,4,99999,3,0.62,2.76,4,5,7,4,3,3,200,99999,-,,,,,,,,,,,,,,,,,,,,,,,,,,,,,,,,,,,
160222_1450,1,subjects,6,4,1,0,0,0,0,0,0,0,0,5.4,0,0,0,0,1,1,2,0,-,-,-,-,-,34.83727811,-20.26515152,-,-,4,2,9,11,16,18,1,7,99999,5,0.9,5.4,7,5,5,5,6,6,200,99999,-,,,,,,,,,,,,,,,,,,,,,,,,,,,,,,,,,,,
160222_1450,1,subjects,6,5,1,0,0,0,0,0,0,0,0,3.36,0,0,0,0,2,2,2,0,-,-,-,-,-,-0.073964497,-29.73484848,-,-,5,1,6,8,10,17,1,4,992,3,0.62,3.36,4,4,3,3,3,3,200,993,-,,,,,,,,,,,,,,,,,,,,,,,,,,,,,,,,,,,
160222_1450,1,subjects,6,6,1,0,0,0,0,0,0,0,0,4,0,0,0,0,2,2,3,0,-,-,-,-,-,-11.02071006,-31.81818182,-,-,6,1,5,8,10,17,1,3,99999,3,0.66,4,3,4,4,3,3,3,195,99999,-,,,,,,,,,,,,,,,,,,,,,,,,,,,,,,,,,,,
160222_1450,1,subjects,6,7,1,0,0,0,0,0,0,0,0,2.8,0,0,0,0,3,3,2,0,-,-,-,-,-,14.42307692,-32.38636364,-,-,7,3,12,13,14,15,1,5,99999,3,0.58,2.8,5,4,7,4,3,3,200,99999,-,,,,,,,,,,,,,,,,,,,,,,,,,,,,,,,,,,,
160222_1450,1,subjects,6,8,1,0,0,0,0,0,0,0,0,4.08,0,0,0,0,2,2,4,0,-,-,-,-,-,-9.24556213,-29.54545455,-,-,8,1,5,6,10,17,1,3,990,3,0.66,4.08,3,4,4,3,3,3,194,991,-,,,,,,,,,,,,,,,,,,,,,,,,,,,,,,,,,,,
160222_1450,1,subjects,6,9,1,0,0,0,0,0,0,0,0,5.88,0,0,0,0,1,1,3,0,-,-,-,-,-,16.64201183,-19.6969697,-,-,9,2,4,11,16,18,1,5,99999,5,0.98,5.88,5,5,7,5,6,6,197,99999,-,,,,,,,,,,,,,,,,,,,,,,,,,,,,,,,,,,,
160222_1450,1,subjects,6,10,1,0,0,0,0,0,0,0,0,3.48,0,0,0,0,2,2,5,0,-,-,-,-,-,-17.01183432,-28.78787879,-,-,10,1,5,6,8,17,1,3,99999,3,0.66,3.48,3,4,4,3,3,3,200,99999,-,,,,,,,,,,,,,,,,,,,,,,,,,,,,,,,,,,,
160222_1450,1,subjects,6,11,1,0,0,0,0,0,0,0,0,5.52,0,0,0,0,1,1,4,0,-,-,-,-,-,8.801775148,-25.9469697,-,-,11,2,4,9,16,18,1,5,99999,5,0.98,5.52,5,5,7,5,6,6,200,99999,-,,,,,,,,,,,,,,,,,,,,,,,,,,,,,,,,,,,
160222_1450,1,subjects,6,12,1,0,0,0,0,0,0,0,0,2.8,0,0,0,0,3,3,3,0,-,-,-,-,-,36.09467456,-19.6969697,-,-,12,3,7,13,14,15,1,7,99999,3,0.5,2.8,7,4,5,4,3,3,200,99999,-,,,,,,,,,,,,,,,,,,,,,,,,,,,,,,,,,,,
160222_1450,1,subjects,6,13,1,0,0,0,0,0,0,0,0,2.76,0,0,0,0,3,3,4,0,-,-,-,-,-,0,-20.45454545,-,-,13,3,7,12,14,15,1,4,994,3,0.62,2.76,4,4,5,7,3,3,200,99999,-,,,,,,,,,,,,,,,,,,,,,,,,,,,,,,,,,,,
160222_1450,1,subjects,6,14,1,0,0,0,0,0,0,0,0,3.16,0,0,0,0,3,3,5,0,-,-,-,-,-,-8.875739645,-30.87121212,-,-,14,3,7,12,13,15,1,3,99999,3,0.66,3.16,3,4,5,7,4,3,200,99999,-,,,,,,,,,,,,,,,,,,,,,,,,,,,,,,,,,,,
160222_1450,1,subjects,6,15,1,0,0,0,0,0,0,0,0,3.24,0,0,0,0,3,3,6,0,-,-,-,-,-,-16.34615385,-29.35606061,-,-,15,3,7,12,13,14,1,3,99999,3,0.66,3.24,3,4,5,7,4,3,200,99999,-,,,,,,,,,,,,,,,,,,,,,,,,,,,,,,,,,,,
160222_1450,1,subjects,6,16,1,0,0,0,0,0,0,0,0,5.64,0,0,0,0,1,1,5,0,-,-,-,-,-,29.36390533,-26.51515152,-,-,16,2,4,9,11,18,1,6,99999,5,0.94,5.64,6,5,7,5,5,6,200,99999,-,,,,,,,,,,,,,,,,,,,,,,,,,,,,,,,,,,,
160222_1450,1,subjects,6,17,1,0,0,0,0,0,0,0,0,3.6,0,0,0,0,2,2,6,0,-,-,-,-,-,-11.90828402,-32.38636364,-,-,17,1,5,6,8,10,1,3,994,3,0.66,3.6,3,4,4,3,3,3,195,99999,-,,,,,,,,,,,,,,,,,,,,,,,,,,,,,,,,,,,
160222_1450,1,subjects,6,18,1,0,0,0,0,0,0,0,0,5.6,0,0,0,0,1,1,6,0,-,-,-,-,-,21.81952663,-29.54545455,-,-,18,2,4,9,11,16,1,6,99999,5,0.94,5.6,6,5,7,5,5,6,200,99999,-,,,,,,,,,,,,,,,,,,,,,,,,,,,,,,,,,,,
160222_1450,1,globals,Period,NumPeriods,RepeatTreatment,numSubjects,groupSize,numGroups,TRUE,FALSE,Choices,prof,minChoice,fee,rate,a,b,c,choice1,choice2,choice3,choice4,choice5,InfoTime,Time,LastPeriod,groupID,groupIDs[1],groupIDs[2],groupIDs[3],groupIDs[4],groupIDs[5],groupIDs[6],groupIDs[7],groupIDs[8],groupIDs[9],groupIDs[10],groupIDs[11],groupIDs[12],groupIDs[13],groupIDs[14],groupIDs[15],groupIDs[16],groupIDs[17],groupIDs[18],subjectID,pointID,randID,id,au[1],au[2],au[3],au[4],au[5],au[6],au[7],au[8],au[9],au[10],au[11],au[12],au[13],au[14],au[15],au[16],au[17],au[18],Role[1],Role[2],Role[3],Role[4],Role[5],Role[6],Role[7],Role[8],Role[9],Role[10],Role[11],Role[12],Role[13],Role[14],Role[15],Role[16],Role[17],Role[18],i,g
160222_1450,1,globals,7,10,0,18,6,3,1,0,0,0,0,8,1,0.2,0.04,0.18,0,0,0,0,0,200,1000,10,4,2,3,2,1,2,3,1,1,3,2,1,3,2,2,1,1,3,3,19,2,1,1,1,1,1,1,1,1,1,1,1,1,1,1,1,1,1,1,1,1,1,1,2,1,3,2,2,3,3,4,4,4,5,6,5,6,5,6,19,2
160222_1450,1,subjects,Period,Subject,Group,Profit,TotalProfit,Participate,payoff[1],payoff[2],payoff[3],payoff[4],payoff[5],payoff[6],payoff[7],payoff[8],payoff[9],payoff[10],GroupID,firstGroupID,role,button,Input11,Input12,Input13,Input14,Input15,x,y,TimeContinueComprehensionPayoffsOK,TimeContinueGroupRandomizationMessageOK,r0,r1,r2,r3,r4,r5,ready,Choices,TimeOKMainStageOK,minChoice,prof,payment,choice0,choice1,choice2,choice3,choice4,choice5,TimeContinueInfornationOK,TimePlotSelectMainStageOK,TimePlotSelectComprehensionPayoffsOK,,,,,,,,,,,,,,,,,,,,,,,,,,,,,,,,,,,
160222_1450,1,subjects,7,1,1,0,0,0,0,0,0,0,0,0,4.38,0,0,0,2,2,1,0,-,-,-,-,-,-8.949704142,-25.75757576,-,-,1,5,6,8,10,17,1,3,983,3,0.66,4.38,3,4,3,3,4,3,200,985,-,,,,,,,,,,,,,,,,,,,,,,,,,,,,,,,,,,,
160222_1450,1,subjects,7,2,1,0,0,0,0,0,0,0,0,0,6.5,0,0,0,1,1,1,0,-,-,-,-,-,21.96745562,-25.9469697,-,-,2,4,9,11,16,18,1,6,990,5,0.94,6.5,6,7,5,5,5,5,200,992,-,,,,,,,,,,,,,,,,,,,,,,,,,,,,,,,,,,,
160222_1450,1,subjects,7,3,1,0,0,0,0,0,0,0,0,0,3.38,0,0,0,3,3,1,0,-,-,-,-,-,-0.147928994,-19.88636364,-,-,3,7,12,13,14,15,1,4,99999,3,0.62,3.38,4,6,3,7,3,3,200,99999,-,,,,,,,,,,,,,,,,,,,,,,,,,,,,,,,,,,,
160222_1450,1,subjects,7,4,1,0,0,0,0,0,0,0,0,0,6.3,0,0,0,1,1,2,0,-,-,-,-,-,39.27514793,-23.10606061,-,-,4,2,9,11,16,18,1,7,99999,5,0.9,6.3,7,6,5,5,5,5,200,99999,-,,,,,,,,,,,,,,,,,,,,,,,,,,,,,,,,,,,
160222_1450,1,subjects,7,5,1,0,0,0,0,0,0,0,0,0,3.98,0,0,0,2,2,2,0,-,-,-,-,-,4.142011834,-31.43939394,-,-,5,1,6,8,10,17,1,4,99999,3,0.62,3.98,4,3,3,3,4,3,200,99999,-,,,,,,,,,,,,,,,,,,,,,,,,,,,,,,,,,,,
160222_1450,1,subjects,7,6,1,0,0,0,0,0,0,0,0,0,4.66,0,0,0,2,2,3,0,-,-,-,-,-,-14.20118343,-26.32575758,-,-,6,1,5,8,10,17,1,3,99999,3,0.66,4.66,3,3,4,3,4,3,193,99999,-,,,,,,,,,,,,,,,,,,,,,,,,,,,,,,,,,,,
160222_1450,1,subjects,7,7,1,0,0,0,0,0,0,0,0,0,3.34,0,0,0,3,3,2,0,-,-,-,-,-,26.33136095,-29.73484848,-,-,7,3,12,13,14,15,1,6,99999,3,0.54,3.34,6,4,3,7,3,3,196,99999,-,,,,,,,,,,,,,,,,,,,,,,,,,,,,,,,,,,,
160222_1450,1,subjects,7,8,1,0,0,0,0,0,0,0,0,0,4.74,0,0,0,2,2,4,0,-,-,-,-,-,-8.875739645,-26.32575758,-,-,8,1,5,6,10,17,1,3,990,3,0.66,4.74,3,3,4,3,4,3,196,993,-,,,,,,,,,,,,,,,,,,,,,,,,,,,,,,,,,,,
160222_1450,1,subjects,7,9,1,0,0,0,0,0,0,0,0,0,6.86,0,0,0,1,1,3,0,-,-,-,-,-,16.42011834,-32.38636364,-,-,9,2,4,11,16,18,1,5,99999,5,0.98,6.86,5,6,7,5,5,5,200,99999,-,,,,,,,,,,,,,,,,,,,,,,,,,,,,,,,,,,,
160222_1450,1,subjects,7,10,1,0,0,0,0,0,0,0,0,0,4.1,0,0,0,2,2,5,0,-,-,-,-,-,1.99704142,-32.1969697,-,-,10,1,5,6,8,17,1,4,99999,3,0.62,4.1,4,3,4,3,3,3,200,99999,-,,,,,,,,,,,,,,,,,,,,,,,,,,,,,,,,,,,
160222_1450,1,subjects,7,11,1,0,0,0,0,0,0,0,0,0,6.5,0,0,0,1,1,4,0,-,-,-,-,-,12.94378698,-32.38636364,-,-,11,2,4,9,16,18,1,5,99999,5,0.98,6.5,5,6,7,5,5,5,200,99999,-,,,,,,,,,,,,,,,,,,,,,,,,,,,,,,,,,,,
160222_1450,1,subjects,7,12,1,0,0,0,0,0,0,0,0,0,3.46,0,0,0,3,3,3,0,-,-,-,-,-,-16.05029586,-32.1969697,-,-,12,3,7,13,14,15,1,3,99999,3,0.66,3.46,3,4,6,7,3,3,200,99999,-,,,,,,,,,,,,,,,,,,,,,,,,,,,,,,,,,,,
160222_1450,1,subjects,7,13,1,0,0,0,0,0,0,0,0,0,3.26,0,0,0,3,3,4,0,-,-,-,-,-,35.79881657,-32.00757576,-,-,13,3,7,12,14,15,1,7,1000,3,0.5,3.26,7,4,6,3,3,3,200,99999,-,,,,,,,,,,,,,,,,,,,,,,,,,,,,,,,,,,,
160222_1450,1,subjects,7,14,1,0,0,0,0,0,0,0,0,0,3.82,0,0,0,3,3,5,0,-,-,-,-,-,-13.31360947,-26.51515152,-,-,14,3,7,12,13,15,1,3,99999,3,0.66,3.82,3,4,6,3,7,3,200,99999,-,,,,,,,,,,,,,,,,,,,,,,,,,,,,,,,,,,,
160222_1450,1,subjects,7,15,1,0,0,0,0,0,0,0,0,0,3.9,0,0,0,3,3,6,0,-,-,-,-,-,-9.023668639,-26.70454545,-,-,15,3,7,12,13,14,1,3,99999,3,0.66,3.9,3,4,6,3,7,3,200,99999,-,,,,,,,,,,,,,,,,,,,,,,,,,,,,,,,,,,,
160222_1450,1,subjects,7,16,1,0,0,0,0,0,0,0,0,0,6.62,0,0,0,1,1,5,0,-,-,-,-,-,10.0591716,-20.07575758,-,-,16,2,4,9,11,18,1,5,99999,5,0.98,6.62,5,6,7,5,5,5,200,99999,-,,,,,,,,,,,,,,,,,,,,,,,,,,,,,,,,,,,
160222_1450,1,subjects,7,17,1,0,0,0,0,0,0,0,0,0,4.26,0,0,0,2,2,6,0,-,-,-,-,-,-12.27810651,-32.38636364,-,-,17,1,5,6,8,10,1,3,99999,3,0.66,4.26,3,3,4,3,3,4,194,99999,-,,,,,,,,,,,,,,,,,,,,,,,,,,,,,,,,,,,
160222_1450,1,subjects,7,18,1,0,0,0,0,0,0,0,0,0,6.58,0,0,0,1,1,6,0,-,-,-,-,-,14.27514793,-32.38636364,-,-,18,2,4,9,11,16,1,5,99999,5,0.98,6.58,5,6,7,5,5,5,200,99999,-,,,,,,,,,,,,,,,,,,,,,,,,,,,,,,,,,,,
160222_1450,1,globals,Period,NumPeriods,RepeatTreatment,numSubjects,groupSize,numGroups,TRUE,FALSE,Choices,prof,minChoice,fee,rate,a,b,c,choice1,choice2,choice3,choice4,choice5,InfoTime,Time,LastPeriod,groupID,groupIDs[1],groupIDs[2],groupIDs[3],groupIDs[4],groupIDs[5],groupIDs[6],groupIDs[7],groupIDs[8],groupIDs[9],groupIDs[10],groupIDs[11],groupIDs[12],groupIDs[13],groupIDs[14],groupIDs[15],groupIDs[16],groupIDs[17],groupIDs[18],subjectID,pointID,randID,id,au[1],au[2],au[3],au[4],au[5],au[6],au[7],au[8],au[9],au[10],au[11],au[12],au[13],au[14],au[15],au[16],au[17],au[18],Role[1],Role[2],Role[3],Role[4],Role[5],Role[6],Role[7],Role[8],Role[9],Role[10],Role[11],Role[12],Role[13],Role[14],Role[15],Role[16],Role[17],Role[18],i,g
160222_1450,1,globals,8,10,0,18,6,3,1,0,0,0,0,8,1,0.2,0.04,0.18,0,0,0,0,0,200,1000,10,4,3,2,3,3,2,1,3,1,2,1,3,1,3,2,1,2,2,1,19,3,1,1,1,1,1,1,1,1,1,1,1,1,1,1,1,1,1,1,1,1,1,1,2,3,2,1,4,2,3,3,5,4,6,4,5,5,6,6,19,0
160222_1450,1,subjects,Period,Subject,Group,Profit,TotalProfit,Participate,payoff[1],payoff[2],payoff[3],payoff[4],payoff[5],payoff[6],payoff[7],payoff[8],payoff[9],payoff[10],GroupID,firstGroupID,role,button,Input11,Input12,Input13,Input14,Input15,x,y,TimeContinueComprehensionPayoffsOK,TimeContinueGroupRandomizationMessageOK,r0,r1,r2,r3,r4,r5,ready,Choices,TimeOKMainStageOK,minChoice,prof,payment,choice0,choice1,choice2,choice3,choice4,choice5,TimeContinueInfornationOK,TimePlotSelectMainStageOK,TimePlotSelectComprehensionPayoffsOK,,,,,,,,,,,,,,,,,,,,,,,,,,,,,,,,,,,
160222_1450,1,subjects,8,1,1,0,0,0,0,0,0,0,0,0,0,5,0,0,2,2,1,0,-,-,-,-,-,3.99408284,-26.51515152,-,-,1,5,6,8,10,17,1,4,993,3,0.62,5,4,3,4,4,3,7,200,995,-,,,,,,,,,,,,,,,,,,,,,,,,,,,,,,,,,,,
160222_1450,1,subjects,8,2,1,0,0,0,0,0,0,0,0,0,0,7.48,0,0,1,1,1,0,-,-,-,-,-,12.5,-32.38636364,-,-,2,4,9,11,16,18,1,5,99999,5,0.98,7.48,5,7,5,5,5,5,200,99999,-,,,,,,,,,,,,,,,,,,,,,,,,,,,,,,,,,,,
160222_1450,1,subjects,8,3,1,0,0,0,0,0,0,0,0,0,0,4.04,0,0,3,3,1,0,-,-,-,-,-,-11.46449704,-32.00757576,-,-,3,7,12,13,14,15,1,3,99999,3,0.66,4.04,3,3,3,3,3,3,99999,99999,-,,,,,,,,,,,,,,,,,,,,,,,,,,,,,,,,,,,
160222_1450,1,subjects,8,4,1,0,0,0,0,0,0,0,0,0,0,7.2,0,0,1,1,2,0,-,-,-,-,-,40.31065089,-25.18939394,-,-,4,2,9,11,16,18,1,7,99999,5,0.9,7.2,7,5,5,5,5,5,200,99999,-,,,,,,,,,,,,,,,,,,,,,,,,,,,,,,,,,,,
160222_1450,1,subjects,8,5,1,0,0,0,0,0,0,0,0,0,0,4.64,0,0,2,2,2,0,-,-,-,-,-,-12.5,-20.07575758,-,-,5,1,6,8,10,17,1,3,993,3,0.66,4.64,3,4,4,4,3,7,200,99999,-,,,,,,,,,,,,,,,,,,,,,,,,,,,,,,,,,,,
160222_1450,1,subjects,8,6,1,0,0,0,0,0,0,0,0,0,0,5.28,0,0,2,2,3,0,-,-,-,-,-,0.517751479,-27.08333333,-,-,6,1,5,8,10,17,1,4,99999,3,0.62,5.28,4,4,3,4,3,7,194,99999,-,,,,,,,,,,,,,,,,,,,,,,,,,,,,,,,,,,,
160222_1450,1,subjects,8,7,1,0,0,0,0,0,0,0,0,0,0,4,0,0,3,3,2,0,-,-,-,-,-,-14.20118343,-23.67424242,-,-,7,3,12,13,14,15,1,3,99999,3,0.66,4,3,3,3,3,3,3,200,99999,-,,,,,,,,,,,,,,,,,,,,,,,,,,,,,,,,,,,
160222_1450,1,subjects,8,8,1,0,0,0,0,0,0,0,0,0,0,5.36,0,0,2,2,4,0,-,-,-,-,-,-4.142011834,-25,-,-,8,1,5,6,10,17,1,4,982,3,0.62,5.36,4,4,3,4,3,7,200,983,-,,,,,,,,,,,,,,,,,,,,,,,,,,,,,,,,,,,
160222_1450,1,subjects,8,9,1,0,0,0,0,0,0,0,0,0,0,7.84,0,0,1,1,3,0,-,-,-,-,-,13.83136095,-32.1969697,-,-,9,2,4,11,16,18,1,5,99999,5,0.98,7.84,5,5,7,5,5,5,200,99999,-,,,,,,,,,,,,,,,,,,,,,,,,,,,,,,,,,,,
160222_1450,1,subjects,8,10,1,0,0,0,0,0,0,0,0,0,0,4.76,0,0,2,2,5,0,-,-,-,-,-,-11.46449704,-28.03030303,-,-,10,1,5,6,8,17,1,3,99999,3,0.66,4.76,3,4,3,4,4,7,200,99999,-,,,,,,,,,,,,,,,,,,,,,,,,,,,,,,,,,,,
160222_1450,1,subjects,8,11,1,0,0,0,0,0,0,0,0,0,0,7.48,0,0,1,1,4,0,-,-,-,-,-,16.12426036,-32.1969697,-,-,11,2,4,9,16,18,1,5,99999,5,0.98,7.48,5,5,7,5,5,5,200,99999,-,,,,,,,,,,,,,,,,,,,,,,,,,,,,,,,,,,,
160222_1450,1,subjects,8,12,1,0,0,0,0,0,0,0,0,0,0,4.12,0,0,3,3,3,0,-,-,-,-,-,-11.76035503,-32.38636364,-,-,12,3,7,13,14,15,1,3,99999,3,0.66,4.12,3,3,3,3,3,3,200,99999,-,,,,,,,,,,,,,,,,,,,,,,,,,,,,,,,,,,,
160222_1450,1,subjects,8,13,1,0,0,0,0,0,0,0,0,0,0,3.92,0,0,3,3,4,0,-,-,-,-,-,-16.93786982,-24.43181818,-,-,13,3,7,12,14,15,1,3,992,3,0.66,3.92,3,3,3,3,3,3,200,994,-,,,,,,,,,,,,,,,,,,,,,,,,,,,,,,,,,,,
160222_1450,1,subjects,8,14,1,0,0,0,0,0,0,0,0,0,0,4.48,0,0,3,3,5,0,-,-,-,-,-,-9.541420118,-29.16666667,-,-,14,3,7,12,13,15,1,3,99999,3,0.66,4.48,3,3,3,3,3,3,200,99999,-,,,,,,,,,,,,,,,,,,,,,,,,,,,,,,,,,,,
160222_1450,1,subjects,8,15,1,0,0,0,0,0,0,0,0,0,0,4.56,0,0,3,3,6,0,-,-,-,-,-,-10.13313609,-31.62878788,-,-,15,3,7,12,13,14,1,3,99999,3,0.66,4.56,3,3,3,3,3,3,200,99999,-,,,,,,,,,,,,,,,,,,,,,,,,,,,,,,,,,,,
160222_1450,1,subjects,8,16,1,0,0,0,0,0,0,0,0,0,0,7.6,0,0,1,1,5,0,-,-,-,-,-,14.42307692,-21.78030303,-,-,16,2,4,9,11,18,1,5,99999,5,0.98,7.6,5,5,7,5,5,5,199,99999,-,,,,,,,,,,,,,,,,,,,,,,,,,,,,,,,,,,,
160222_1450,1,subjects,8,17,1,0,0,0,0,0,0,0,0,0,0,4.76,0,0,2,2,6,0,-,-,-,-,-,39.12721893,-32.00757576,-,-,17,1,5,6,8,10,1,7,99999,3,0.5,4.76,7,4,3,4,4,3,196,99999,-,,,,,,,,,,,,,,,,,,,,,,,,,,,,,,,,,,,
160222_1450,1,subjects,8,18,1,0,0,0,0,0,0,0,0,0,0,7.56,0,0,1,1,6,0,-,-,-,-,-,11.61242604,-32.00757576,-,-,18,2,4,9,11,16,1,5,99999,5,0.98,7.56,5,5,7,5,5,5,200,99999,-,,,,,,,,,,,,,,,,,,,,,,,,,,,,,,,,,,,
160222_1450,1,globals,Period,NumPeriods,RepeatTreatment,numSubjects,groupSize,numGroups,TRUE,FALSE,Choices,prof,minChoice,fee,rate,a,b,c,choice1,choice2,choice3,choice4,choice5,InfoTime,Time,LastPeriod,groupID,groupIDs[1],groupIDs[2],groupIDs[3],groupIDs[4],groupIDs[5],groupIDs[6],groupIDs[7],groupIDs[8],groupIDs[9],groupIDs[10],groupIDs[11],groupIDs[12],groupIDs[13],groupIDs[14],groupIDs[15],groupIDs[16],groupIDs[17],groupIDs[18],subjectID,pointID,randID,id,au[1],au[2],au[3],au[4],au[5],au[6],au[7],au[8],au[9],au[10],au[11],au[12],au[13],au[14],au[15],au[16],au[17],au[18],Role[1],Role[2],Role[3],Role[4],Role[5],Role[6],Role[7],Role[8],Role[9],Role[10],Role[11],Role[12],Role[13],Role[14],Role[15],Role[16],Role[17],Role[18],i,g
160222_1450,1,globals,9,10,0,18,6,3,1,0,0,0,0,8,1,0.2,0.04,0.18,0,0,0,0,0,200,1000,10,4,1,2,1,2,3,3,3,1,3,2,1,1,2,2,1,2,3,3,19,1,1,1,1,1,1,1,1,1,1,1,1,1,1,1,1,1,1,1,1,1,1,1,2,2,1,2,3,3,4,3,4,5,4,5,6,6,5,6,19,2
160222_1450,1,subjects,Period,Subject,Group,Profit,TotalProfit,Participate,payoff[1],payoff[2],payoff[3],payoff[4],payoff[5],payoff[6],payoff[7],payoff[8],payoff[9],payoff[10],GroupID,firstGroupID,role,button,Input11,Input12,Input13,Input14,Input15,x,y,TimeContinueComprehensionPayoffsOK,TimeContinueGroupRandomizationMessageOK,r0,r1,r2,r3,r4,r5,ready,Choices,TimeOKMainStageOK,minChoice,prof,payment,choice0,choice1,choice2,choice3,choice4,choice5,TimeContinueInfornationOK,TimePlotSelectMainStageOK,TimePlotSelectComprehensionPayoffsOK,,,,,,,,,,,,,,,,,,,,,,,,,,,,,,,,,,,
160222_1450,1,subjects,9,1,1,0,0,0,0,0,0,0,0,0,0,0,5.66,0,2,2,1,0,-,-,-,-,-,-11.31656805,-28.78787879,-,-,1,5,6,8,10,17,1,3,99999,3,0.66,5.66,3,3,3,3,4,3,200,99999,-,,,,,,,,,,,,,,,,,,,,,,,,,,,,,,,,,,,
160222_1450,1,subjects,9,2,1,0,0,0,0,0,0,0,0,0,0,0,8.46,0,1,1,1,0,-,-,-,-,-,8.801775148,-28.59848485,-,-,2,4,9,11,16,18,1,5,99999,5,0.98,8.46,5,7,5,5,5,5,177,99999,-,,,,,,,,,,,,,,,,,,,,,,,,,,,,,,,,,,,
160222_1450,1,subjects,9,3,1,0,0,0,0,0,0,0,0,0,0,0,4.7,0,3,3,1,0,-,-,-,-,-,-10.13313609,-32.00757576,-,-,3,7,12,13,14,15,1,3,99999,3,0.66,4.7,3,4,3,4,3,3,200,99999,-,,,,,,,,,,,,,,,,,,,,,,,,,,,,,,,,,,,
160222_1450,1,subjects,9,4,1,0,0,0,0,0,0,0,0,0,0,0,8.1,0,1,1,2,0,-,-,-,-,-,38.31360947,-19.88636364,-,-,4,2,9,11,16,18,1,7,99999,5,0.9,8.1,7,5,5,5,5,5,200,99999,-,,,,,,,,,,,,,,,,,,,,,,,,,,,,,,,,,,,
160222_1450,1,subjects,9,5,1,0,0,0,0,0,0,0,0,0,0,0,5.3,0,2,2,2,0,-,-,-,-,-,-13.83136095,-19.6969697,-,-,5,1,6,8,10,17,1,3,99999,3,0.66,5.3,3,3,3,3,4,3,200,99999,-,,,,,,,,,,,,,,,,,,,,,,,,,,,,,,,,,,,
160222_1450,1,subjects,9,6,1,0,0,0,0,0,0,0,0,0,0,0,5.94,0,2,2,3,0,-,-,-,-,-,-13.60946746,-26.89393939,-,-,6,1,5,8,10,17,1,3,994,3,0.66,5.94,3,3,3,3,4,3,192,99999,-,,,,,,,,,,,,,,,,,,,,,,,,,,,,,,,,,,,
160222_1450,1,subjects,9,7,1,0,0,0,0,0,0,0,0,0,0,0,4.62,0,3,3,2,0,-,-,-,-,-,3.698224852,-31.62878788,-,-,7,3,12,13,14,15,1,4,99999,3,0.62,4.62,4,3,3,4,3,3,200,99999,-,,,,,,,,,,,,,,,,,,,,,,,,,,,,,,,,,,,
160222_1450,1,subjects,9,8,1,0,0,0,0,0,0,0,0,0,0,0,6.02,0,2,2,4,0,-,-,-,-,-,-9.467455621,-32.38636364,-,-,8,1,5,6,10,17,1,3,99999,3,0.66,6.02,3,3,3,3,4,3,200,99999,-,,,,,,,,,,,,,,,,,,,,,,,,,,,,,,,,,,,
160222_1450,1,subjects,9,9,1,0,0,0,0,0,0,0,0,0,0,0,8.82,0,1,1,3,0,-,-,-,-,-,13.16568047,-32.38636364,-,-,9,2,4,11,16,18,1,5,99999,5,0.98,8.82,5,5,7,5,5,5,200,99999,-,,,,,,,,,,,,,,,,,,,,,,,,,,,,,,,,,,,
160222_1450,1,subjects,9,10,1,0,0,0,0,0,0,0,0,0,0,0,5.38,0,2,2,5,0,-,-,-,-,-,2.218934911,-28.40909091,-,-,10,1,5,6,8,17,1,4,99999,3,0.62,5.38,4,3,3,3,3,3,200,99999,-,,,,,,,,,,,,,,,,,,,,,,,,,,,,,,,,,,,
160222_1450,1,subjects,9,11,1,0,0,0,0,0,0,0,0,0,0,0,8.46,0,1,1,4,0,-,-,-,-,-,9.171597633,-26.89393939,-,-,11,2,4,9,16,18,1,5,99999,5,0.98,8.46,5,5,7,5,5,5,200,99999,-,,,,,,,,,,,,,,,,,,,,,,,,,,,,,,,,,,,
160222_1450,1,subjects,9,12,1,0,0,0,0,0,0,0,0,0,0,0,4.78,0,3,3,3,0,-,-,-,-,-,-12.94378698,-32.1969697,-,-,12,3,7,13,14,15,1,3,99999,3,0.66,4.78,3,3,4,4,3,3,200,99999,-,,,,,,,,,,,,,,,,,,,,,,,,,,,,,,,,,,,
160222_1450,1,subjects,9,13,1,0,0,0,0,0,0,0,0,0,0,0,4.54,0,3,3,4,0,-,-,-,-,-,0.887573964,-32.38636364,-,-,13,3,7,12,14,15,1,4,993,3,0.62,4.54,4,3,4,3,3,3,200,99999,-,,,,,,,,,,,,,,,,,,,,,,,,,,,,,,,,,,,
160222_1450,1,subjects,9,14,1,0,0,0,0,0,0,0,0,0,0,0,5.14,0,3,3,5,0,-,-,-,-,-,-9.24556213,-29.73484848,-,-,14,3,7,12,13,15,1,3,99999,3,0.66,5.14,3,3,4,3,4,3,200,99999,-,,,,,,,,,,,,,,,,,,,,,,,,,,,,,,,,,,,
160222_1450,1,subjects,9,15,1,0,0,0,0,0,0,0,0,0,0,0,5.22,0,3,3,6,0,-,-,-,-,-,-12.86982249,-21.21212121,-,-,15,3,7,12,13,14,1,3,99999,3,0.66,5.22,3,3,4,3,4,3,200,99999,-,,,,,,,,,,,,,,,,,,,,,,,,,,,,,,,,,,,
160222_1450,1,subjects,9,16,1,0,0,0,0,0,0,0,0,0,0,0,8.58,0,1,1,5,0,-,-,-,-,-,11.02071006,-25.75757576,-,-,16,2,4,9,11,18,1,5,99999,5,0.98,8.58,5,5,7,5,5,5,195,99999,-,,,,,,,,,,,,,,,,,,,,,,,,,,,,,,,,,,,
160222_1450,1,subjects,9,17,1,0,0,0,0,0,0,0,0,0,0,0,5.42,0,2,2,6,0,-,-,-,-,-,-12.13017751,-32.38636364,-,-,17,1,5,6,8,10,1,3,99999,3,0.66,5.42,3,3,3,3,3,4,197,99999,-,,,,,,,,,,,,,,,,,,,,,,,,,,,,,,,,,,,
160222_1450,1,subjects,9,18,1,0,0,0,0,0,0,0,0,0,0,0,8.54,0,1,1,6,0,-,-,-,-,-,11.46449704,-32.1969697,-,-,18,2,4,9,11,16,1,5,99999,5,0.98,8.54,5,5,7,5,5,5,195,99999,-,,,,,,,,,,,,,,,,,,,,,,,,,,,,,,,,,,,
160222_1450,1,globals,Period,NumPeriods,RepeatTreatment,numSubjects,groupSize,numGroups,TRUE,FALSE,Choices,prof,minChoice,fee,rate,a,b,c,choice1,choice2,choice3,choice4,choice5,InfoTime,Time,LastPeriod,groupID,groupIDs[1],groupIDs[2],groupIDs[3],groupIDs[4],groupIDs[5],groupIDs[6],groupIDs[7],groupIDs[8],groupIDs[9],groupIDs[10],groupIDs[11],groupIDs[12],groupIDs[13],groupIDs[14],groupIDs[15],groupIDs[16],groupIDs[17],groupIDs[18],subjectID,pointID,randID,id,au[1],au[2],au[3],au[4],au[5],au[6],au[7],au[8],au[9],au[10],au[11],au[12],au[13],au[14],au[15],au[16],au[17],au[18],Role[1],Role[2],Role[3],Role[4],Role[5],Role[6],Role[7],Role[8],Role[9],Role[10],Role[11],Role[12],Role[13],Role[14],Role[15],Role[16],Role[17],Role[18],i,g
160222_1450,1,globals,10,10,0,18,6,3,1,0,0,0,0,8,1,0.2,0.04,0.18,0,0,0,0,0,200,1000,10,4,1,2,3,1,2,3,1,3,2,1,2,1,3,3,2,3,2,1,19,2,2,1,1,1,1,1,1,1,1,1,1,1,1,1,1,1,1,1,1,1,1,1,1,2,2,2,3,3,3,4,4,5,4,5,5,6,6,6,19,0
160222_1450,1,subjects,Period,Subject,Group,Profit,TotalProfit,Participate,payoff[1],payoff[2],payoff[3],payoff[4],payoff[5],payoff[6],payoff[7],payoff[8],payoff[9],payoff[10],GroupID,firstGroupID,role,button,Input11,Input12,Input13,Input14,Input15,x,y,TimeContinueComprehensionPayoffsOK,TimeContinueGroupRandomizationMessageOK,r0,r1,r2,r3,r4,r5,ready,Choices,TimeOKMainStageOK,minChoice,prof,payment,choice0,choice1,choice2,choice3,choice4,choice5,TimeContinueInfornationOK,TimePlotSelectMainStageOK,TimePlotSelectComprehensionPayoffsOK,,,,,,,,,,,,,,,,,,,,,,,,,,,,,,,,,,,
160222_1450,1,subjects,10,1,1,14.32,14.32,1,0,0,0,0,0,0,0,0,0,6.32,2,2,1,0,-,-,-,-,-,-12.86982249,-19.6969697,-,-,1,5,6,8,10,17,1,3,994,3,0.66,6.32,3,3,3,3,3,3,200,995,-,,,,,,,,,,,,,,,,,,,,,,,,,,,,,,,,,,,
160222_1450,1,subjects,10,2,1,17.44,17.44,1,0,0,0,0,0,0,0,0,0,9.44,1,1,1,0,-,-,-,-,-,14.49704142,-19.6969697,-,-,2,4,9,11,16,18,1,5,99999,5,0.98,9.44,5,7,5,5,5,5,200,99999,-,,,,,,,,,,,,,,,,,,,,,,,,,,,,,,,,,,,
160222_1450,1,subjects,10,3,1,13.32,13.32,1,0,0,0,0,0,0,0,0,0,5.32,3,3,1,0,-,-,-,-,-,0.887573964,-32.38636364,-,-,3,7,12,13,14,15,1,4,99999,3,0.62,5.32,4,6,3,7,3,3,200,99999,-,,,,,,,,,,,,,,,,,,,,,,,,,,,,,,,,,,,
160222_1450,1,subjects,10,4,1,17,17,1,0,0,0,0,0,0,0,0,0,9,1,1,2,0,-,-,-,-,-,34.83727811,-25.75757576,-,-,4,2,9,11,16,18,1,7,99999,5,0.9,9,7,5,5,5,5,5,200,99999,-,,,,,,,,,,,,,,,,,,,,,,,,,,,,,,,,,,,
160222_1450,1,subjects,10,5,1,13.96,13.96,1,0,0,0,0,0,0,0,0,0,5.96,2,2,2,0,-,-,-,-,-,-9.023668639,-28.21969697,-,-,5,1,6,8,10,17,1,3,99999,3,0.66,5.96,3,3,3,3,3,3,200,99999,-,,,,,,,,,,,,,,,,,,,,,,,,,,,,,,,,,,,
160222_1450,1,subjects,10,6,1,14.6,14.6,1,0,0,0,0,0,0,0,0,0,6.6,2,2,3,0,-,-,-,-,-,-16.12426036,-31.81818182,-,-,6,1,5,8,10,17,1,3,99999,3,0.66,6.6,3,3,3,3,3,3,198,99999,-,,,,,,,,,,,,,,,,,,,,,,,,,,,,,,,,,,,
160222_1450,1,subjects,10,7,1,13.16,13.16,1,0,0,0,0,0,0,0,0,0,5.16,3,3,2,0,-,-,-,-,-,26.33136095,-31.62878788,-,-,7,3,12,13,14,15,1,6,994,3,0.54,5.16,6,4,3,7,3,3,200,995,-,,,,,,,,,,,,,,,,,,,,,,,,,,,,,,,,,,,
160222_1450,1,subjects,10,8,1,14.68,14.68,1,0,0,0,0,0,0,0,0,0,6.68,2,2,4,0,-,-,-,-,-,-14.9408284,-32.38636364,-,-,8,1,5,6,10,17,1,3,99999,3,0.66,6.68,3,3,3,3,3,3,200,99999,-,,,,,,,,,,,,,,,,,,,,,,,,,,,,,,,,,,,
160222_1450,1,subjects,10,9,1,17.8,17.8,1,0,0,0,0,0,0,0,0,0,9.8,1,1,3,0,-,-,-,-,-,12.13017751,-32.00757576,-,-,9,2,4,11,16,18,1,5,99999,5,0.98,9.8,5,5,7,5,5,5,200,99999,-,,,,,,,,,,,,,,,,,,,,,,,,,,,,,,,,,,,
160222_1450,1,subjects,10,10,1,14.04,14.04,1,0,0,0,0,0,0,0,0,0,6.04,2,2,5,0,-,-,-,-,-,-11.53846154,-23.29545455,-,-,10,1,5,6,8,17,1,3,99999,3,0.66,6.04,3,3,3,3,3,3,200,99999,-,,,,,,,,,,,,,,,,,,,,,,,,,,,,,,,,,,,
160222_1450,1,subjects,10,11,1,17.44,17.44,1,0,0,0,0,0,0,0,0,0,9.44,1,1,4,0,-,-,-,-,-,10.87278107,-27.46212121,-,-,11,2,4,9,16,18,1,5,99999,5,0.98,9.44,5,5,7,5,5,5,200,99999,-,,,,,,,,,,,,,,,,,,,,,,,,,,,,,,,,,,,
160222_1450,1,subjects,10,12,1,13.44,13.44,1,0,0,0,0,0,0,0,0,0,5.44,3,3,3,0,-,-,-,-,-,-14.57100592,-32.00757576,-,-,12,3,7,13,14,15,1,3,99999,3,0.66,5.44,3,4,6,7,3,3,200,99999,-,,,,,,,,,,,,,,,,,,,,,,,,,,,,,,,,,,,
160222_1450,1,subjects,10,13,1,13.04,13.04,1,0,0,0,0,0,0,0,0,0,5.04,3,3,4,0,-,-,-,-,-,35.79881657,-32.38636364,-,-,13,3,7,12,14,15,1,7,992,3,0.5,5.04,7,4,6,3,3,3,200,994,-,,,,,,,,,,,,,,,,,,,,,,,,,,,,,,,,,,,
160222_1450,1,subjects,10,14,1,13.8,13.8,1,0,0,0,0,0,0,0,0,0,5.8,3,3,5,0,-,-,-,-,-,-11.02071006,-31.81818182,-,-,14,3,7,12,13,15,1,3,99999,3,0.66,5.8,3,4,6,3,7,3,194,99999,-,,,,,,,,,,,,,,,,,,,,,,,,,,,,,,,,,,,
160222_1450,1,subjects,10,15,1,13.88,13.88,1,0,0,0,0,0,0,0,0,0,5.88,3,3,6,0,-,-,-,-,-,-9.023668639,-27.08333333,-,-,15,3,7,12,13,14,1,3,99999,3,0.66,5.88,3,4,6,3,7,3,200,99999,-,,,,,,,,,,,,,,,,,,,,,,,,,,,,,,,,,,,
160222_1450,1,subjects,10,16,1,17.56,17.56,1,0,0,0,0,0,0,0,0,0,9.56,1,1,5,0,-,-,-,-,-,17.01183432,-24.81060606,-,-,16,2,4,9,11,18,1,5,99999,5,0.98,9.56,5,5,7,5,5,5,200,99999,-,,,,,,,,,,,,,,,,,,,,,,,,,,,,,,,,,,,
160222_1450,1,subjects,10,17,1,14.08,14.08,1,0,0,0,0,0,0,0,0,0,6.08,2,2,6,0,-,-,-,-,-,-16.56804734,-32.1969697,-,-,17,1,5,6,8,10,1,3,992,3,0.66,6.08,3,3,3,3,3,3,194,99999,-,,,,,,,,,,,,,,,,,,,,,,,,,,,,,,,,,,,
160222_1450,1,subjects,10,18,1,17.52,17.52,1,0,0,0,0,0,0,0,0,0,9.52,1,1,6,0,-,-,-,-,-,12.20414201,-31.43939394,-,-,18,2,4,9,11,16,1,5,99999,5,0.98,9.52,5,5,7,5,5,5,200,99999,-,,,,,,,,,,,,,,,,,,,,,,,,,,,,,,,,,,,
160222_1450,1,summary,Period,,,,,,,,,,,,,,,,,,,,,,,,,,,,,,,,,,,,,,,,,,,,,,,,,,,,,,,,,,,,,,,,,,,,,,,,,,,,,,,,,,,,
160222_1450,1,summary,1,,,,,,,,,,,,,,,,,,,,,,,,,,,,,,,,,,,,,,,,,,,,,,,,,,,,,,,,,,,,,,,,,,,,,,,,,,,,,,,,,,,,
160222_1450,1,summary,2,,,,,,,,,,,,,,,,,,,,,,,,,,,,,,,,,,,,,,,,,,,,,,,,,,,,,,,,,,,,,,,,,,,,,,,,,,,,,,,,,,,,
160222_1450,1,summary,3,,,,,,,,,,,,,,,,,,,,,,,,,,,,,,,,,,,,,,,,,,,,,,,,,,,,,,,,,,,,,,,,,,,,,,,,,,,,,,,,,,,,
160222_1450,1,summary,4,,,,,,,,,,,,,,,,,,,,,,,,,,,,,,,,,,,,,,,,,,,,,,,,,,,,,,,,,,,,,,,,,,,,,,,,,,,,,,,,,,,,
160222_1450,1,summary,5,,,,,,,,,,,,,,,,,,,,,,,,,,,,,,,,,,,,,,,,,,,,,,,,,,,,,,,,,,,,,,,,,,,,,,,,,,,,,,,,,,,,
160222_1450,1,summary,6,,,,,,,,,,,,,,,,,,,,,,,,,,,,,,,,,,,,,,,,,,,,,,,,,,,,,,,,,,,,,,,,,,,,,,,,,,,,,,,,,,,,
160222_1450,1,summary,7,,,,,,,,,,,,,,,,,,,,,,,,,,,,,,,,,,,,,,,,,,,,,,,,,,,,,,,,,,,,,,,,,,,,,,,,,,,,,,,,,,,,
160222_1450,1,summary,8,,,,,,,,,,,,,,,,,,,,,,,,,,,,,,,,,,,,,,,,,,,,,,,,,,,,,,,,,,,,,,,,,,,,,,,,,,,,,,,,,,,,
160222_1450,1,summary,9,,,,,,,,,,,,,,,,,,,,,,,,,,,,,,,,,,,,,,,,,,,,,,,,,,,,,,,,,,,,,,,,,,,,,,,,,,,,,,,,,,,,
160222_1450,1,summary,10,,,,,,,,,,,,,,,,,,,,,,,,,,,,,,,,,,,,,,,,,,,,,,,,,,,,,,,,,,,,,,,,,,,,,,,,,,,,,,,,,,,,
160222_1450,1,session,Subject,FinalProfit,ShowUpFee,ShowUpFeeInvested,MoneyAdded,MoneyToPay,MoneyEarned,,,,,,,,,,,,,,,,,,,,,,,,,,,,,,,,,,,,,,,,,,,,,,,,,,,,,,,,,,,,,,,,,,,,,,,,,,,,,,
160222_1450,1,session,1,14.32,0,0,0,14.32,14.32,,,,,,,,,,,,,,,,,,,,,,,,,,,,,,,,,,,,,,,,,,,,,,,,,,,,,,,,,,,,,,,,,,,,,,,,,,,,,,
160222_1450,1,session,2,17.44,0,0,0,17.44,17.44,,,,,,,,,,,,,,,,,,,,,,,,,,,,,,,,,,,,,,,,,,,,,,,,,,,,,,,,,,,,,,,,,,,,,,,,,,,,,,
160222_1450,1,session,3,13.32,0,0,0,13.32,13.32,,,,,,,,,,,,,,,,,,,,,,,,,,,,,,,,,,,,,,,,,,,,,,,,,,,,,,,,,,,,,,,,,,,,,,,,,,,,,,
160222_1450,1,session,4,17,0,0,0,17,17,,,,,,,,,,,,,,,,,,,,,,,,,,,,,,,,,,,,,,,,,,,,,,,,,,,,,,,,,,,,,,,,,,,,,,,,,,,,,,
160222_1450,1,session,5,13.96,0,0,0,13.96,13.96,,,,,,,,,,,,,,,,,,,,,,,,,,,,,,,,,,,,,,,,,,,,,,,,,,,,,,,,,,,,,,,,,,,,,,,,,,,,,,
160222_1450,1,session,6,14.6,0,0,0,14.6,14.6,,,,,,,,,,,,,,,,,,,,,,,,,,,,,,,,,,,,,,,,,,,,,,,,,,,,,,,,,,,,,,,,,,,,,,,,,,,,,,
160222_1450,1,session,7,13.16,0,0,0,13.16,13.16,,,,,,,,,,,,,,,,,,,,,,,,,,,,,,,,,,,,,,,,,,,,,,,,,,,,,,,,,,,,,,,,,,,,,,,,,,,,,,
160222_1450,1,session,8,14.68,0,0,0,14.68,14.68,,,,,,,,,,,,,,,,,,,,,,,,,,,,,,,,,,,,,,,,,,,,,,,,,,,,,,,,,,,,,,,,,,,,,,,,,,,,,,
160222_1450,1,session,9,17.8,0,0,0,17.8,17.8,,,,,,,,,,,,,,,,,,,,,,,,,,,,,,,,,,,,,,,,,,,,,,,,,,,,,,,,,,,,,,,,,,,,,,,,,,,,,,
160222_1450,1,session,10,14.04,0,0,0,14.04,14.04,,,,,,,,,,,,,,,,,,,,,,,,,,,,,,,,,,,,,,,,,,,,,,,,,,,,,,,,,,,,,,,,,,,,,,,,,,,,,,
160222_1450,1,session,11,17.44,0,0,0,17.44,17.44,,,,,,,,,,,,,,,,,,,,,,,,,,,,,,,,,,,,,,,,,,,,,,,,,,,,,,,,,,,,,,,,,,,,,,,,,,,,,,
160222_1450,1,session,12,13.44,0,0,0,13.44,13.44,,,,,,,,,,,,,,,,,,,,,,,,,,,,,,,,,,,,,,,,,,,,,,,,,,,,,,,,,,,,,,,,,,,,,,,,,,,,,,
160222_1450,1,session,13,13.04,0,0,0,13.04,13.04,,,,,,,,,,,,,,,,,,,,,,,,,,,,,,,,,,,,,,,,,,,,,,,,,,,,,,,,,,,,,,,,,,,,,,,,,,,,,,
160222_1450,1,session,14,13.8,0,0,0,13.8,13.8,,,,,,,,,,,,,,,,,,,,,,,,,,,,,,,,,,,,,,,,,,,,,,,,,,,,,,,,,,,,,,,,,,,,,,,,,,,,,,
160222_1450,1,session,15,13.88,0,0,0,13.88,13.88,,,,,,,,,,,,,,,,,,,,,,,,,,,,,,,,,,,,,,,,,,,,,,,,,,,,,,,,,,,,,,,,,,,,,,,,,,,,,,
160222_1450,1,session,16,17.56,0,0,0,17.56,17.56,,,,,,,,,,,,,,,,,,,,,,,,,,,,,,,,,,,,,,,,,,,,,,,,,,,,,,,,,,,,,,,,,,,,,,,,,,,,,,
160222_1450,1,session,17,14.08,0,0,0,14.08,14.08,,,,,,,,,,,,,,,,,,,,,,,,,,,,,,,,,,,,,,,,,,,,,,,,,,,,,,,,,,,,,,,,,,,,,,,,,,,,,,
160222_1450,1,session,18,17.52,0,0,0,17.52,17.52,,,,,,,,,,,,,,,,,,,,,,,,,,,,,,,,,,,,,,,,,,,,,,,,,,,,,,,,,,,,,,,,,,,,,,,,,,,,,,